,participant,block,trial_num,modality,stim_level,stim_value,rating,RT,vas_initial_value,block_onset,trial_onset,fixation_onset,anticipation_duration,stim_onset,stim_duration,stim_offset,stim_rating_delay,rating_onset,rating_offset,iti_duration
1,sub-01,1,1,vision,5,0.95,88.34700521,4.338168123,65,1784.892224,1784.944583,1786.44624,2.5,1788.898964,2,1790.901045,5,1795.88995,1800.228119,5
2,sub-01,1,2,vision,1,0.05,14.28059896,3.804278623,5,1784.892224,1805.250293,1806.751953,2,1808.754089,2,1810.756286,6,1816.746276,1820.550555,5
3,sub-01,1,3,vision,1,0.05,6.657552083,2.919972201,95,1784.892224,1825.572729,1827.074411,2,1829.076499,2,1831.078701,5,1836.067551,1838.987523,3
4,sub-01,1,4,vision,3,0.5,27.24088542,3.737369576,65,1784.892224,1842.007505,1843.509196,3,1846.512515,2,1848.514609,5,1853.503535,1857.240904,2
5,sub-01,1,5,vision,3,0.5,23.06705729,2.185759662,95,1784.892224,1859.276462,1860.778132,2.5,1863.264215,2,1865.26652,6,1871.256435,1873.442194,2
6,sub-01,1,6,vision,3,0.5,28.359375,1.918935339,35,1784.892224,1875.47777,1876.979466,2,1878.964905,2,1880.967078,6,1886.957017,1888.875953,3
7,sub-01,1,7,vision,1,0.05,7.901041667,3.537281519,35,1784.892224,1891.8958,1893.397568,2,1895.399886,2,1897.40196,6,1903.391887,1906.929168,5
8,sub-01,1,8,vision,4,0.725,44.43815104,8.642982255,5,1784.892224,1911.951344,1913.453028,2.5,1915.955704,2,1917.957998,6,1923.947882,1932.590864,4
9,sub-01,1,9,vision,4,0.725,44.4453125,1.952292242,5,1784.892224,1936.611805,1938.113572,3,1941.116775,2,1943.119107,5,1948.107798,1950.06009,3
10,sub-01,1,10,vision,2,0.275,15.94661458,1.918792902,35,1784.892224,1953.080084,1954.581714,2.5,1957.08451,2,1959.086575,5,1964.075505,1965.994298,3
11,sub-01,1,11,vision,5,0.95,94.35807292,2.235899594,65,1784.892224,1969.014298,1970.515985,3.5,1974.019824,2,1976.02203,5,1981.010785,1983.246685,5
12,sub-01,1,12,vision,4,0.725,59.73242188,2.269159111,95,1784.892224,1988.268876,1989.770449,3,1992.773852,2,1994.776054,5,1999.764811,2002.03397,4
13,sub-01,1,13,vision,2,0.275,22.29296875,3.337004104,95,1784.892224,2006.055198,2007.556849,2,2009.558947,2,2011.561154,6,2017.55119,2020.888194,2
14,sub-01,1,14,vision,3,0.5,16.51367188,2.035725194,95,1784.892224,2022.923705,2024.425349,2,2026.41095,2,2028.413205,5,2033.40196,2035.437685,2
15,sub-01,1,15,vision,5,0.95,100,1.31809065,5,1784.892224,2037.823585,2039.325241,3.5,2042.812431,2,2044.814602,6,2050.821199,2052.139289,5
16,sub-01,1,16,vision,4,0.725,38.29947917,2.069056816,65,1784.892224,2057.161546,2058.663243,2.5,2061.165895,2,2063.168084,5,2068.156944,2070.226001,3
17,sub-01,1,17,vision,5,0.95,84.921875,2.085546,65,1784.892224,2073.2459,2074.74764,2.5,2077.250418,2,2079.252626,5,2084.241405,2086.326951,2
18,sub-01,1,18,vision,2,0.275,14.90104167,2.285982688,65,1784.892224,2088.362552,2089.86432,2,2091.849819,2,2093.852051,5,2098.840832,2101.126814,2
19,sub-01,1,19,vision,2,0.275,17.04752604,2.319328822,35,1784.892224,2103.14561,2104.647307,2.5,2107.149946,2,2109.152269,5,2114.14104,2116.460369,3
20,sub-01,1,20,vision,5,0.95,76.69596354,2.970002082,95,1784.892224,2119.480217,2120.98187,2,2122.984195,2,2124.986375,6,2130.976288,2133.94629,3
21,sub-01,1,21,vision,1,0.05,6.367838542,1.451671916,95,1784.892224,2136.966279,2138.467914,3.5,2141.971872,2,2143.974017,5,2148.962808,2150.41448,5
22,sub-01,1,22,vision,2,0.275,20.44856771,1.985609841,65,1784.892224,2155.436634,2156.938317,2,2158.940539,2,2160.942705,5,2165.931462,2167.917072,4
23,sub-01,1,23,vision,3,0.5,39.15104167,3.036703936,5,1784.892224,2171.938177,2173.439858,3.5,2176.943727,2,2178.945936,6,2184.935832,2187.972536,2
24,sub-01,1,24,vision,1,0.05,9.818359375,3.070213325,65,1784.892224,2190.008056,2191.50981,2,2193.495295,2,2195.497541,5,2200.486257,2203.55647,3
25,sub-01,1,25,vision,4,0.725,37.42317708,2.00223287,65,1784.892224,2206.576303,2208.078079,2.5,2210.580806,2,2212.58293,6,2218.57295,2220.575183,5
26,sub-01,2,1,pain,5,49,75.19140625,4.638370747,35,2256.91333,2256.931954,2258.433637,3,2261.368501,2,2263.372417,6,2269.412378,2274.050749,5
27,sub-01,2,2,pain,3,47,61.32617188,2.869871739,5,2256.91333,2279.073057,2280.57472,2.5,2283.013826,2,2285.012831,6,2291.069593,2293.939465,2
28,sub-01,2,3,pain,3,47,38.64257813,3.787647588,35,2256.91333,2296.342075,2297.843746,3,2300.769498,2,2302.765843,5,2307.821296,2311.608944,5
29,sub-01,2,4,pain,2,46,35.86393229,3.453890352,5,2256.91333,2316.631165,2318.132711,2.5,2320.569839,2,2322.571054,6,2328.627626,2332.081516,3
30,sub-01,2,5,pain,5,49,67.22070313,1.96885082,5,2256.91333,2335.485298,2336.986969,3,2339.912722,2,2341.90907,6,2347.965699,2349.93455,4
31,sub-01,2,6,pain,2,46,20.61979167,1.651746027,95,2256.91333,2353.95556,2355.457349,2.5,2357.89728,2,2359.895453,6,2365.952206,2367.603952,2
32,sub-01,2,7,pain,3,47,46.58203125,1.885467538,5,2256.91333,2369.990005,2371.491689,3,2374.428791,2,2376.430496,6,2382.487115,2384.372582,4
33,sub-01,2,8,pain,4,48,71.22526042,3.420498494,5,2256.91333,2388.393643,2389.895295,3.5,2393.33555,2,2395.334676,6,2401.391256,2404.811754,2
34,sub-01,2,9,pain,2,46,27.50911458,2.252597892,65,2256.91333,2406.847269,2408.34902,3,2411.275188,2,2413.27113,5,2418.326561,2420.579159,4
35,sub-01,2,10,pain,5,49,83.52213542,3.570539386,5,2256.91333,2424.600255,2426.101867,3.5,2429.54227,2,2431.541276,6,2437.597916,2441.168456,3
36,sub-01,2,11,pain,4,48,66.74023438,2.419348076,35,2256.91333,2444.205147,2445.70687,3,2448.630907,2,2450.629003,5,2455.684459,2458.103807,5
37,sub-01,2,12,pain,1,45,31.97460938,2.269168562,95,2256.91333,2463.126131,2464.627756,3,2467.566305,2,2469.566447,6,2475.623228,2477.892396,4
38,sub-01,2,13,pain,1,45,19.85026042,2.552836769,35,2256.91333,2481.913485,2483.415133,3.5,2486.853153,2,2488.854479,5,2493.910027,2496.462864,3
39,sub-01,2,14,pain,1,45,11.11132813,1.852068112,95,2256.91333,2499.482789,2500.984549,3.5,2504.425285,2,2506.423792,6,2512.480431,2514.332499,5
40,sub-01,2,15,pain,3,47,43.75455729,3.12024528,35,2256.91333,2519.738447,2521.240134,2,2523.167645,2,2525.161192,6,2531.217786,2534.338031,2
41,sub-01,2,16,pain,4,48,59.19401042,2.653025896,35,2256.91333,2536.356883,2537.858583,3,2540.798468,2,2542.797272,6,2548.853911,2551.506936,4
42,sub-01,2,17,pain,1,45,45.18424479,2.302646215,5,2256.91333,2555.527955,2557.029727,3.5,2560.46996,2,2562.469053,6,2568.525613,2570.828259,5
43,sub-01,2,18,pain,2,46,52.203125,1.918842538,65,2256.91333,2575.850446,2577.352106,2,2579.290295,2,2581.289828,5,2586.345307,2588.264149,3
44,sub-01,2,19,pain,1,45,27.68033854,1.484945357,95,2256.91333,2591.317415,2592.819189,3.5,2596.251419,2,2598.258426,5,2603.31406,2604.799005,3
45,sub-01,2,20,pain,4,48,79.00065104,2.586283406,35,2256.91333,2607.819006,2609.320644,2.5,2611.760966,2,2613.758859,5,2618.814412,2621.400696,4
46,sub-01,2,21,pain,2,46,58.08398438,2.386013063,65,2256.91333,2625.788883,2627.290578,3.5,2630.72902,2,2632.729873,5,2637.78541,2640.171423,4
47,sub-01,2,22,pain,4,48,92.63151042,1.501761794,95,2256.91333,2644.19252,2645.694183,3,2648.634965,2,2650.633015,6,2656.689536,2658.191298,4
48,sub-01,2,23,pain,3,47,65.22916667,1.618490284,95,2256.91333,2662.212399,2663.71396,3,2666.653415,2,2668.652908,5,2673.708316,2675.326807,2
49,sub-01,2,24,pain,5,49,94.77734375,2.886620078,65,2256.91333,2677.362537,2678.864183,2.5,2681.289022,2,2683.285648,5,2688.341126,2691.227746,4
50,sub-01,2,25,pain,5,49,96.87565104,2.502925478,5,2256.91333,2695.24877,2696.750502,3.5,2700.189793,2,2702.189747,6,2708.246395,2710.749321,2
51,sub-02,1,1,vision,1,0.05,6.048177083,10.41157021,35,12598.09312,12598.11243,12599.61404,2.5,12602.10014,2,12604.10223,6,12610.09222,12620.50379,5
52,sub-02,1,2,vision,3,0.5,36.48893229,7.808492518,65,12598.09312,12625.89305,12627.39468,2,12629.38012,2,12631.38245,5,12636.38796,12644.19646,4
53,sub-02,1,3,vision,5,0.95,99.83072917,4.555137286,95,12598.09312,12648.21768,12649.71935,3.5,12653.22321,2,12655.22532,6,12661.21526,12665.7704,2
54,sub-02,1,4,vision,4,0.725,50.30273438,3.787604422,35,12598.09312,12667.78916,12669.2909,3,12672.29414,2,12674.29642,5,12679.28517,12683.07277,3
55,sub-02,1,5,vision,5,0.95,84.24479167,3.804214968,5,12598.09312,12686.09271,12687.59445,2.5,12690.0972,2,12692.09942,6,12698.08924,12701.89346,4
56,sub-02,1,6,vision,5,0.95,87.01627604,8.626196452,95,12598.09312,12705.91464,12707.4163,2.5,12709.91913,2,12711.92135,6,12717.9112,12726.53739,4
57,sub-02,1,7,vision,4,0.725,56.54036458,7.741813649,65,12598.09312,12730.55849,12732.06015,2,12734.06239,2,12736.06459,6,12742.05449,12749.7963,4
58,sub-02,1,8,vision,5,0.95,79.15429688,7.07452117,95,12598.09312,12753.81749,12755.31905,2.5,12757.82195,2,12759.82404,5,12764.81293,12771.88745,3
59,sub-02,1,9,vision,3,0.5,29.80729167,4.688600334,35,12598.09312,12774.90745,12776.40909,2,12778.4112,2,12780.41352,6,12786.40336,12791.09196,5
60,sub-02,1,10,vision,1,0.05,7.129557292,4.922104159,5,12598.09312,12796.11415,12797.61586,2,12799.61794,2,12801.62023,5,12806.60906,12811.53116,2
61,sub-02,1,11,vision,4,0.725,50.21614583,9.660714169,95,12598.09312,12813.56666,12815.06842,3.5,12818.55558,2,12820.5577,6,12826.5477,12836.20842,3
62,sub-02,1,12,vision,4,0.725,36.921875,5.472725903,5,12598.09312,12839.2283,12840.72996,2,12842.73233,2,12844.73449,5,12849.7232,12855.19592,3
63,sub-02,1,13,vision,3,0.5,40.16861979,4.154708309,65,12598.09312,12858.21591,12859.71756,3.5,12863.22161,2,12865.22375,6,12871.21359,12875.3683,5
64,sub-02,1,14,vision,3,0.5,46.25390625,5.072240833,35,12598.09312,12880.39049,12881.89204,3,12884.89535,2,12886.89755,5,12891.88644,12896.95868,5
65,sub-02,1,15,vision,1,0.05,1.092447917,7.141154625,35,12598.09312,12901.98097,12903.48263,2.5,12905.96867,2,12907.97092,6,12913.97749,12921.11865,5
66,sub-02,1,16,vision,1,0.05,3.909505208,5.405989053,35,12598.09312,12926.14093,12927.64271,2.5,12930.14528,2,12932.14759,6,12938.13742,12943.54341,3
67,sub-02,1,17,vision,2,0.275,21.52994792,6.290237248,35,12598.09312,12946.56338,12948.06503,3,12951.06851,2,12953.07067,5,12958.05947,12964.34971,2
68,sub-02,1,18,vision,2,0.275,24.82161458,5.005628313,5,12598.09312,12966.38524,12967.88691,3,12970.87354,2,12972.87574,5,12977.86457,12982.87019,4
69,sub-02,1,19,vision,2,0.275,29.17447917,8.042309905,65,12598.09312,12986.89132,12988.39295,3,12991.39618,2,12993.39838,5,12998.38722,13006.42953,3
70,sub-02,1,20,vision,2,0.275,29.52473958,3.637296002,35,12598.09312,13009.44951,13010.95119,3,13013.95449,2,13015.9566,5,13020.94551,13024.5828,5
71,sub-02,1,21,vision,5,0.95,98.89192708,3.754284206,65,12598.09312,13029.605,13031.10666,2.5,13033.60942,2,13035.61173,5,13040.60051,13044.3548,2
72,sub-02,1,22,vision,4,0.725,60.72460938,3.487195926,5,12598.09312,13046.39027,13047.89186,2,13049.87748,2,13051.87966,5,13056.86841,13060.3556,5
73,sub-02,1,23,vision,2,0.275,39.25455729,2.085707943,65,12598.09312,13065.37779,13066.87955,3,13069.8829,2,13071.88509,5,13076.87384,13078.95955,2
74,sub-02,1,24,vision,3,0.5,50.16080729,5.489393051,65,12598.09312,13080.99515,13082.49681,3,13085.48343,2,13087.48555,5,13092.47435,13097.96374,2
75,sub-02,1,25,vision,1,0.05,0.455729167,4.288109658,5,12598.09312,13099.99936,13101.50114,3.5,13104.98816,2,13106.99037,5,13111.97928,13116.26739,4
76,sub-02,2,1,pain,5,49,30.05338542,9.594025067,35,13150.5032,13150.52184,13152.02342,2.5,13154.45626,2,13156.46162,5,13161.50055,13171.09458,5
77,sub-02,2,2,pain,5,49,38.94075521,7.958748864,5,13150.5032,13176.11666,13177.61837,3,13180.55752,2,13182.55719,5,13187.61268,13195.57143,4
78,sub-02,2,3,pain,1,45,8.787760417,5.339017289,5,13150.5032,13199.62606,13201.1276,3,13204.05924,2,13206.06645,6,13212.12322,13217.46224,5
79,sub-02,2,4,pain,4,48,3.323567708,4.938852098,35,13150.5032,13222.48456,13223.98623,3.5,13227.42431,2,13229.42545,6,13235.48216,13240.42101,2
80,sub-02,2,5,pain,3,47,8.431640625,5.756374441,95,13150.5032,13242.45659,13243.95823,3.5,13247.38414,2,13249.38091,6,13255.43754,13261.19392,5
81,sub-02,2,6,pain,3,47,31.98697917,5.923308035,35,13150.5032,13266.21608,13267.71782,2.5,13270.15686,2,13272.15592,6,13278.21261,13284.13591,5
82,sub-02,2,7,pain,4,48,25.9296875,5.823143392,5,13150.5032,13289.15811,13290.65975,3,13293.59732,2,13295.59857,6,13301.6552,13307.47834,4
83,sub-02,2,8,pain,3,47,34.25585938,4.054497113,95,13150.5032,13311.49941,13313.00107,2,13314.94076,2,13316.93867,5,13321.99431,13326.04881,4
84,sub-02,2,9,pain,3,47,43.13411458,3.787625651,95,13150.5032,13330.06993,13331.57156,3.5,13335.01141,2,13337.01092,6,13343.06749,13346.85512,4
85,sub-02,2,10,pain,1,45,15.77018229,2.085678023,65,13150.5032,13350.87619,13352.37779,3.5,13355.81698,2,13357.81718,5,13362.87273,13364.95841,2
86,sub-02,2,11,pain,1,45,14.77539063,3.63734725,95,13150.5032,13367.01058,13368.51234,2,13370.4475,2,13372.44999,6,13378.50662,13382.14396,5
87,sub-02,2,12,pain,3,47,42.51822917,6.807586811,95,13150.5032,13387.16622,13388.66791,2.5,13391.1068,2,13393.10613,6,13399.16277,13405.97036,4
88,sub-02,2,13,pain,2,46,40.75260417,7.174726064,5,13150.5032,13409.99136,13411.49307,3,13414.43266,2,13416.43188,5,13421.48733,13428.66205,2
89,sub-02,2,14,pain,5,49,56.67773438,4.237985054,95,13150.5032,13430.6808,13432.18259,3.5,13435.62402,2,13437.62186,6,13443.67855,13447.91654,2
90,sub-02,2,15,pain,2,46,39.74023438,2.636336398,65,13150.5032,13449.95218,13451.45386,2,13453.37785,2,13455.37475,6,13461.4314,13464.06774,3
91,sub-02,2,16,pain,2,46,29.39453125,3.720820424,35,13150.5032,13467.08767,13468.58939,2,13470.5306,2,13472.52698,5,13477.58254,13481.30336,4
92,sub-02,2,17,pain,1,45,22.75065104,2.552974188,65,13150.5032,13485.32456,13486.82621,3.5,13490.26523,2,13492.26542,6,13498.32211,13500.87508,3
93,sub-02,2,18,pain,2,46,25.21354167,2.40275581,65,13150.5032,13503.89501,13505.39667,3.5,13508.83605,2,13510.83604,5,13515.89149,13518.29425,3
94,sub-02,2,19,pain,1,45,4.505859375,7.408278997,5,13150.5032,13521.31422,13522.81588,2,13524.75625,2,13526.75355,5,13531.80905,13539.21733,3
95,sub-02,2,20,pain,2,46,2.022135417,4.922140251,95,13150.5032,13542.23723,13543.739,2,13545.67965,2,13547.67665,5,13552.73222,13557.65436,2
96,sub-02,2,21,pain,5,49,69.97460938,5.0223561,65,13150.5032,13559.68982,13561.19159,2.5,13563.61727,2,13565.61309,6,13571.66967,13576.69203,3
97,sub-02,2,22,pain,4,48,61.51171875,5.122436864,35,13150.5032,13579.7119,13581.21365,2,13583.15379,2,13585.15124,6,13591.20791,13596.33034,5
98,sub-02,2,23,pain,4,48,41.62109375,5.088997557,5,13150.5032,13601.35252,13602.85419,2.5,13605.29174,2,13607.29242,5,13612.34789,13617.43689,3
99,sub-02,2,24,pain,5,49,76.96744792,5.339260792,5,13150.5032,13620.45682,13621.95863,2.5,13624.3998,2,13626.39674,6,13632.45347,13637.79273,3
100,sub-02,2,25,pain,4,48,26.06575521,3.237039005,95,13150.5032,13640.81275,13642.31441,3.5,13645.75454,2,13647.75365,6,13653.8103,13657.04734,2
101,sub-03,1,1,vision,3,0.5,59.75455729,6.674162674,95,8458.354332,8458.389873,8459.891485,2.5,8462.360805,2,8464.363174,6,8470.352939,8477.027102,4
102,sub-03,1,2,vision,2,0.275,45.27083333,4.55515176,95,8458.354332,8481.048194,8482.549867,2,8484.552072,2,8486.554162,6,8492.54411,8497.099262,4
103,sub-03,1,3,vision,2,0.275,42.890625,2.636270409,65,8458.354332,8501.120351,8502.622003,2.5,8505.124819,2,8507.126974,6,8513.116775,8515.753045,3
104,sub-03,1,4,vision,4,0.725,78.20117188,2.269305166,65,8458.354332,8518.773146,8520.274733,2,8522.277023,2,8524.279263,5,8529.267954,8531.537259,3
105,sub-03,1,5,vision,5,0.95,92.17578125,6.907757199,5,8458.354332,8534.557255,8536.058814,3.5,8539.562696,2,8541.564877,5,8546.553673,8553.46143,3
106,sub-03,1,6,vision,1,0.05,5.154296875,2.819848746,65,8458.354332,8556.481341,8557.983085,3,8560.98642,2,8562.988613,6,8568.978412,8571.798261,2
107,sub-03,1,7,vision,3,0.5,52.69401042,5.255936279,5,8458.354332,8573.817107,8575.31878,3.5,8578.822765,2,8580.824975,6,8586.814753,8592.070689,4
108,sub-03,1,8,vision,4,0.725,65.6640625,2.119143806,95,8458.354332,8596.091794,8597.593342,2.5,8600.096147,2,8602.098389,5,8607.087122,8609.206266,3
109,sub-03,1,9,vision,2,0.275,41.06119792,2.019026391,35,8458.354332,8612.226166,8613.727913,2,8615.730012,2,8617.732336,5,8622.721038,8624.740065,3
110,sub-03,1,10,vision,1,0.05,5.132161458,2.970119704,65,8458.354332,8627.760032,8629.261725,3,8632.265036,2,8634.267241,5,8639.255946,8642.226066,3
111,sub-03,1,11,vision,5,0.95,97.96875,2.152395748,95,8458.354332,8645.246025,8646.74759,2,8648.749808,2,8650.752013,6,8656.741929,8658.894325,5
112,sub-03,1,12,vision,3,0.5,19.57617188,6.523880478,95,8458.354332,8663.916598,8665.418272,2.5,8667.921053,2,8669.923246,6,8675.913061,8682.436942,3
113,sub-03,1,13,vision,3,0.5,32.14388021,2.853165175,65,8458.354332,8685.456958,8686.958795,2.5,8689.461469,2,8691.463648,6,8697.45349,8700.306655,4
114,sub-03,1,14,vision,4,0.725,65.93619792,4.10469665,35,8458.354332,8704.327881,8705.82945,2.5,8708.332328,2,8710.33442,6,8716.324309,8720.429006,5
115,sub-03,1,15,vision,2,0.275,17.23111979,3.170266921,5,8458.354332,8725.451186,8726.952759,3.5,8730.456745,2,8732.458831,6,8738.448716,8741.618983,5
116,sub-03,1,16,vision,5,0.95,95.58138021,2.61972814,65,8458.354332,8746.641186,8748.142875,2,8750.145087,2,8752.147342,5,8757.136002,8759.75573,3
117,sub-03,1,17,vision,1,0.05,7.372395833,3.6874778,35,8458.354332,8762.775732,8764.277342,3,8767.28077,2,8769.282876,6,8775.272675,8778.960153,5
118,sub-03,1,18,vision,2,0.275,19.37174479,6.206970526,35,8458.354332,8783.982385,8785.483955,3,8788.487389,2,8790.489479,6,8796.479423,8802.686394,3
119,sub-03,1,19,vision,5,0.95,95,2.769755336,95,8458.354332,8805.706351,8807.208037,3.5,8810.711933,2,8812.71416,5,8817.70283,8820.472585,4
120,sub-03,1,20,vision,1,0.05,3.369791667,3.887719843,95,8458.354332,8824.493659,8825.995432,2.5,8828.498072,2,8830.500326,6,8836.490217,8840.377937,2
121,sub-03,1,21,vision,1,0.05,5.636067708,2.769763049,95,8458.354332,8842.396853,8843.898484,3.5,8847.402382,2,8849.404593,5,8854.393312,8857.163075,5
122,sub-03,1,22,vision,5,0.95,95,1.852196816,95,8458.354332,8862.185328,8863.687013,2,8865.689219,2,8867.691426,6,8873.681267,8875.533464,2
123,sub-03,1,23,vision,4,0.725,67.609375,2.352719205,35,8458.354332,8877.552303,8879.053934,2.5,8881.55679,2,8883.558834,6,8889.548755,8891.901474,5
124,sub-03,1,24,vision,4,0.725,67.29817708,1.885528376,35,8458.354332,8896.923574,8898.425238,2,8900.427435,2,8902.429752,5,8907.418461,8909.30399,3
125,sub-03,1,25,vision,3,0.5,17.47721354,3.654160344,95,8458.354332,8912.323979,8913.825715,3,8916.828904,2,8918.831184,6,8924.820997,8928.475157,4
126,sub-03,2,1,pain,4,48,52.83072917,6.457137075,95,8991.058775,8991.060857,8992.562525,3,8995.514735,2,8997.517914,6,9003.557904,9010.015041,4
127,sub-03,2,2,pain,1,45,14.47460938,4.855386346,65,8991.058775,9014.036193,9015.537782,2,9017.478239,2,9019.475478,5,9024.530992,9029.386379,5
128,sub-03,2,3,pain,5,49,43.86588542,8.526102075,5,8991.058775,9034.408666,9035.910321,2.5,9038.349183,2,9040.348506,5,9045.404024,9053.930126,4
129,sub-03,2,4,pain,3,47,35.33528646,6.640782771,5,8991.058775,9057.951249,9059.452878,2,9061.393002,2,9063.390671,5,9068.446142,9075.086924,5
130,sub-03,2,5,pain,2,46,11.80729167,3.887756962,5,8991.058775,9080.10902,9081.610765,3.5,9085.048471,2,9087.050075,6,9093.106656,9096.994413,4
131,sub-03,2,6,pain,2,46,8.352864583,5.205815198,5,8991.058775,9101.015394,9102.517167,2.5,9104.95805,2,9106.955317,5,9112.010847,9117.216662,2
132,sub-03,2,7,pain,1,45,6.259765625,3.220323637,5,8991.058775,9119.252224,9120.753958,2,9122.679068,2,9124.67492,5,9129.730401,9132.950725,2
133,sub-03,2,8,pain,3,47,18.63606771,4.805458542,5,8991.058775,9134.986211,9136.487978,2.5,9138.913849,2,9140.909411,6,9146.966074,9151.771533,5
134,sub-03,2,9,pain,1,45,7.495442708,2.769841102,35,8991.058775,9156.793683,9158.295346,2,9160.233987,2,9162.233056,5,9167.288516,9170.058357,5
135,sub-03,2,10,pain,5,49,55.28645833,3.637315463,95,8991.058775,9175.080533,9176.582102,3.5,9180.020274,2,9182.021526,5,9187.077153,9190.714468,4
136,sub-03,2,11,pain,3,47,54.10611979,4.354932066,5,8991.058775,9194.73546,9196.237202,2.5,9198.677519,2,9200.675466,5,9205.730914,9210.085846,2
137,sub-03,2,12,pain,5,49,65,2.519566565,65,8991.058775,9212.121435,9213.623075,3,9216.548234,2,9218.545193,5,9223.600674,9226.12024,5
138,sub-03,2,13,pain,2,46,26.13606771,3.770919969,35,8991.058775,9231.142428,9232.644064,2,9234.582466,2,9236.581739,5,9241.637202,9245.408122,3
139,sub-03,2,14,pain,3,47,62.75195313,6.97452183,95,8991.058775,9248.428034,9249.9298,3,9252.87126,2,9254.868584,5,9259.924022,9266.898543,5
140,sub-03,2,15,pain,2,46,4.625651042,2.569669747,65,8991.058775,9271.920622,9273.422386,3,9276.359938,2,9278.361054,5,9283.416612,9285.986282,2
141,sub-03,2,16,pain,3,47,41.72460938,4.505073051,65,8991.058775,9288.021725,9289.523481,3,9292.44865,2,9294.445579,5,9299.501025,9304.006098,2
142,sub-03,2,17,pain,5,49,69.29622396,2.386109558,35,8991.058775,9306.041726,9307.543365,3.5,9310.969662,2,9312.965987,6,9319.02256,9321.40867,3
143,sub-03,2,18,pain,1,45,8.686197917,4.171418152,5,8991.058775,9324.428537,9325.930313,2.5,9328.371788,2,9330.368578,5,9335.423994,9339.595412,4
144,sub-03,2,19,pain,4,48,49.54166667,3.370521557,35,8991.058775,9343.616498,9345.118038,3.5,9348.558246,2,9350.557401,5,9355.612931,9358.983452,2
145,sub-03,2,20,pain,2,46,38.234375,2.386104773,65,8991.058775,9361.019027,9362.520678,3.5,9365.946299,2,9367.943343,6,9373.999884,9376.385989,4
146,sub-03,2,21,pain,5,49,71.93619792,4.705316101,5,8991.058775,9380.407058,9381.90875,2,9383.848782,2,9385.846416,5,9390.901841,9395.607157,4
147,sub-03,2,22,pain,4,48,22.52278646,6.473939651,35,8991.058775,9399.628195,9401.12983,3.5,9404.569842,2,9406.569301,6,9412.625832,9419.099771,5
148,sub-03,2,23,pain,4,48,35.125,3.086765785,5,8991.058775,9424.121887,9425.623642,3,9428.561714,2,9430.562305,6,9436.618965,9439.705731,2
149,sub-03,2,24,pain,4,48,59.41927083,5.03888834,35,8991.058775,9441.741328,9443.242991,3.5,9446.6691,2,9448.665721,6,9454.722272,9459.76116,2
150,sub-03,2,25,pain,1,45,28.63411458,3.670716159,35,8991.058775,9461.780079,9463.281854,3,9466.224137,2,9468.22064,6,9474.277179,9477.947895,2
151,sub-04,1,1,vision,5,0.95,58.36328125,24.59378862,95,12860.30865,12860.34409,12861.84571,2.5,12864.3151,2,12866.31733,6,12872.30715,12896.90094,2
152,sub-04,1,2,vision,2,0.275,21.24934896,3.537372492,5,12860.30865,12898.93663,12900.43835,2.5,12902.92427,2,12904.92648,6,12910.9164,12914.45378,2
153,sub-04,1,3,vision,5,0.95,67.40104167,3.003453462,95,12860.30865,12916.47272,12917.97432,3.5,12921.47812,2,12923.48031,5,12928.46909,12931.47255,3
154,sub-04,1,4,vision,2,0.275,21.60026042,1.785364878,65,12860.30865,12934.49243,12935.99411,2.5,12938.49687,2,12940.49915,5,12945.48795,12947.27331,2
155,sub-04,1,5,vision,5,0.95,77.67447917,2.502731938,35,12860.30865,12949.29209,12950.79386,3.5,12954.29773,2,12956.29986,6,12962.28993,12964.79266,4
156,sub-04,1,6,vision,4,0.725,47.68229167,1.835354234,5,12860.30865,12968.81375,12970.31532,3.5,12973.81927,2,12975.82149,6,12981.81129,12983.64664,4
157,sub-04,1,7,vision,4,0.725,47.37174479,1.568365556,5,12860.30865,12987.66795,12989.16946,2,12991.17175,2,12993.17396,5,12998.16284,12999.7312,5
158,sub-04,1,8,vision,2,0.275,21.43359375,2.302659251,65,12860.30865,13004.75337,13006.25505,3,13009.25837,2,13011.26046,5,13016.2493,13018.55196,3
159,sub-04,1,9,vision,1,0.05,2.107421875,1.435040829,5,12860.30865,13021.57192,13023.07361,3,13026.07681,2,13028.07912,6,13034.06896,13035.504,5
160,sub-04,1,10,vision,1,0.05,1.893229167,1.96899161,5,12860.30865,13040.52608,13042.02777,3,13045.03116,2,13047.03337,6,13053.02318,13054.99217,3
161,sub-04,1,11,vision,3,0.5,21.73046875,1.568431637,65,12860.30865,13058.01213,13059.5137,3.5,13063.01767,2,13065.01988,6,13071.00976,13072.57819,2
162,sub-04,1,12,vision,3,0.5,33.42317708,1.685097759,95,12860.30865,13074.59711,13076.09877,3.5,13079.60265,2,13081.60478,5,13086.59366,13088.27876,2
163,sub-04,1,13,vision,2,0.275,27.23372396,0.917821823,65,12860.30865,13090.31433,13091.81612,2,13093.80161,2,13095.80384,5,13100.79255,13101.71037,2
164,sub-04,1,14,vision,3,0.5,42.37630208,1.234644052,65,12860.30865,13103.74583,13105.24764,2.5,13107.73365,2,13109.73585,5,13114.72466,13115.9593,5
165,sub-04,1,15,vision,5,0.95,94.06835938,2.135815414,95,12860.30865,13120.98159,13122.48318,3.5,13125.98706,2,13127.98935,5,13132.97807,13135.11388,5
166,sub-04,1,16,vision,4,0.725,51.39973958,1.551749194,65,12860.30865,13140.13606,13141.63772,2,13143.63984,2,13145.64213,6,13151.63206,13153.18381,5
167,sub-04,1,17,vision,1,0.05,1.354166667,1.718688214,65,12860.30865,13158.20592,13159.70769,3,13162.71096,2,13164.7132,6,13170.70302,13172.42171,4
168,sub-04,1,18,vision,3,0.5,47.1953125,1.685269744,35,12860.30865,13176.44271,13177.94457,3,13180.94778,2,13182.95,6,13188.9398,13190.62507,5
169,sub-04,1,19,vision,3,0.5,45.79947917,2.069100688,5,12860.30865,13195.64722,13197.14899,2,13199.1512,2,13201.15333,6,13207.14321,13209.21231,3
170,sub-04,1,20,vision,1,0.05,3.19140625,1.518393796,65,12860.30865,13212.2322,13213.73384,2,13215.73605,2,13217.73838,6,13223.72817,13225.24657,5
171,sub-04,1,21,vision,4,0.725,56.375,1.768686462,65,12860.30865,13230.26875,13231.7706,2,13233.77272,2,13235.77482,5,13240.76366,13242.53235,4
172,sub-04,1,22,vision,5,0.95,88.83007813,1.952304848,5,12860.30865,13246.55348,13248.05508,2,13250.05736,2,13252.05956,6,13258.04938,13260.00169,4
173,sub-04,1,23,vision,1,0.05,2.122395833,1.701884783,35,12860.30865,13264.02275,13265.52431,2.5,13268.02718,2,13270.02939,6,13276.01927,13277.72115,3
174,sub-04,1,24,vision,4,0.725,55.22330729,1.251395591,65,12860.30865,13280.7411,13282.24287,2,13284.24496,2,13286.24736,6,13292.2371,13293.48849,4
175,sub-04,1,25,vision,2,0.275,9.199869792,1.768764781,95,12860.30865,13297.5097,13299.01134,3.5,13302.5153,2,13304.51745,6,13310.50725,13312.27601,5
176,sub-04,2,1,pain,1,45,73.26367188,7.525044077,35,13329.8599,13329.86195,13331.36372,2,13333.316,2,13335.31802,6,13341.35802,13348.88306,3
177,sub-04,2,2,pain,5,49,88.40950521,4.304874657,5,13329.8599,13351.90302,13353.40462,3,13356.34576,2,13358.34353,6,13364.40005,13368.70492,2
178,sub-04,2,3,pain,4,48,54.28190104,1.384898161,65,13329.8599,13370.74042,13372.24216,2.5,13374.66815,2,13376.66359,5,13381.71929,13383.10419,2
179,sub-04,2,4,pain,5,49,82.44466146,1.902103916,65,13329.8599,13385.13964,13386.64126,2.5,13389.06713,2,13391.06284,6,13397.11947,13399.02158,4
180,sub-04,2,5,pain,5,49,84.98242188,2.335944334,35,13329.8599,13403.04279,13404.54438,3,13407.48365,2,13409.48321,5,13414.53868,13416.87462,3
181,sub-04,2,6,pain,1,45,39.68489583,1.034532256,35,13329.8599,13419.8947,13421.39631,2.5,13423.83672,2,13425.8345,5,13430.89006,13431.92459,2
182,sub-04,2,7,pain,2,46,5.665364583,3.03672737,5,13329.8599,13433.94353,13435.44522,2,13437.38711,2,13439.38287,5,13444.43836,13447.47508,2
183,sub-04,2,8,pain,5,49,68.98567708,1.635283564,35,13329.8599,13449.51065,13451.01228,2,13452.93735,2,13454.93336,6,13460.98994,13462.62522,3
184,sub-04,2,9,pain,2,46,42.00455729,1.601761523,95,13329.8599,13465.64518,13467.14686,3,13470.0877,2,13472.08564,5,13477.14124,13478.743,3
185,sub-04,2,10,pain,3,47,51.56380208,1.351596778,95,13329.8599,13481.76298,13483.26464,3.5,13486.70464,2,13488.70399,5,13493.75945,13495.11105,5
186,sub-04,2,11,pain,3,47,52.79427083,1.501606776,95,13329.8599,13500.13314,13501.63491,3.5,13505.07299,2,13507.07424,5,13512.1298,13513.63141,4
187,sub-04,2,12,pain,1,45,31.96484375,1.752058396,35,13329.8599,13517.65247,13519.15425,3,13522.09373,2,13524.09295,5,13529.14848,13530.90053,3
188,sub-04,2,13,pain,4,48,65.01367188,1.735304263,95,13329.8599,13533.92042,13535.42211,3,13538.36183,2,13540.36085,5,13545.41643,13547.15173,4
189,sub-04,2,14,pain,4,48,45.08203125,1.835404426,95,13329.8599,13551.1728,13552.67455,2.5,13555.11481,2,13557.11279,5,13562.16823,13564.00363,5
190,sub-04,2,15,pain,2,46,30.48828125,0.767636807,35,13329.8599,13569.0259,13570.52747,2.5,13572.96652,2,13574.96583,6,13581.02237,13581.79001,5
191,sub-04,2,16,pain,3,47,60.77148438,1.718687676,95,13329.8599,13586.81218,13588.31379,2,13590.25223,2,13592.25155,5,13597.307,13599.02568,4
192,sub-04,2,17,pain,4,48,66.66861979,1.835486121,5,13329.8599,13603.04679,13604.54833,2.5,13606.98899,2,13608.98668,6,13615.04323,13616.87872,3
193,sub-04,2,18,pain,5,49,86.70377604,1.568422694,35,13329.8599,13619.89872,13621.40026,2.5,13623.84095,2,13625.83849,5,13630.89407,13632.46249,4
194,sub-04,2,19,pain,1,45,17.11523438,1.168076781,5,13329.8599,13636.48359,13637.98525,3.5,13641.42501,2,13643.42467,5,13648.48013,13649.64821,5
195,sub-04,2,20,pain,2,46,41.17447917,1.43513654,65,13329.8599,13654.67029,13656.17199,3.5,13659.61015,2,13661.61143,6,13667.66797,13669.1031,2
196,sub-04,2,21,pain,4,48,77.38736979,1.151397616,5,13329.8599,13671.13848,13672.64024,3,13675.56569,2,13677.56234,5,13682.61778,13683.76918,2
197,sub-04,2,22,pain,2,46,39.93098958,0.86765961,35,13329.8599,13685.80462,13687.30645,2.5,13689.73213,2,13691.72785,6,13697.78448,13698.65214,2
198,sub-04,2,23,pain,3,47,39.45572917,1.30143075,5,13329.8599,13700.68785,13702.18939,2,13704.11464,2,13706.11051,5,13711.16608,13712.46751,4
199,sub-04,2,24,pain,3,47,30.48111979,0.7342896,35,13329.8599,13716.4885,13717.99027,3,13720.92978,2,13722.92906,6,13728.9856,13729.71989,4
200,sub-04,2,25,pain,1,45,19.17122396,1.485105052,95,13329.8599,13733.74096,13735.24264,3.5,13738.68283,2,13740.68185,5,13745.73744,13747.22254,3
201,sub-05,1,1,vision,4,0.725,93.61197917,6.773752988,65,2851.379009,2851.414362,2852.916004,2,2854.884751,2,2856.887086,6,2862.894065,2869.667818,5
202,sub-05,1,2,vision,3,0.5,78.72786458,3.50399026,5,2851.379009,2874.689994,2876.191679,3.5,2879.695558,2,2881.697736,6,2887.687573,2891.191564,5
203,sub-05,1,3,vision,4,0.725,88.80338542,4.071258844,65,2851.379009,2896.21366,2897.715345,3.5,2901.219293,2,2903.221427,5,2908.21024,2912.281499,2
204,sub-05,1,4,vision,5,0.95,96.70182292,2.61970634,95,2851.379009,2914.300233,2915.802017,3.5,2919.305916,2,2921.308126,5,2926.296811,2928.916517,2
205,sub-05,1,5,vision,1,0.05,26.21289063,5.022286736,65,2851.379009,2930.952093,2932.453664,3,2935.440272,2,2937.442584,6,2943.432458,2948.454745,4
206,sub-05,1,6,vision,3,0.5,87.30664063,3.020069413,35,2851.379009,2952.475812,2953.977498,3,2956.980724,2,2958.983009,6,2964.972903,2967.992972,3
207,sub-05,1,7,vision,3,0.5,75.6015625,1.718622859,65,2851.379009,2971.012843,2972.51461,2.5,2975.017384,2,2977.019469,5,2982.008367,2983.72699,2
208,sub-05,1,8,vision,2,0.275,50.71875,2.102457825,65,2851.379009,2985.762565,2987.264219,3,2990.250735,2,2992.252984,5,2997.241768,2999.344225,5
209,sub-05,1,9,vision,5,0.95,98.33854167,1.384914907,95,2851.379009,3004.366385,3005.868085,3,3008.871391,2,3010.873643,6,3016.863489,3018.248403,5
210,sub-05,1,10,vision,1,0.05,7.533854167,2.836522186,95,2851.379009,3023.27058,3024.772273,2,3026.774484,2,3028.776729,6,3034.766577,3037.603099,3
211,sub-05,1,11,vision,5,0.95,98.41796875,1.568507501,95,2851.379009,3040.623106,3042.124742,2,3044.126966,2,3046.129158,5,3051.117889,3052.686397,4
212,sub-05,1,12,vision,1,0.05,9.696614583,2.435980997,35,2851.379009,3056.707387,3058.209163,2,3060.211373,2,3062.213573,6,3068.203445,3070.639426,5
213,sub-05,1,13,vision,3,0.5,69.65364583,2.452792162,5,2851.379009,3075.661651,3077.163324,2.5,3079.666164,2,3081.668364,6,3087.658254,3090.111046,4
214,sub-05,1,14,vision,1,0.05,11.68815104,3.971099984,35,2851.379009,3094.132133,3095.63378,2,3097.635993,2,3099.638114,5,3104.62698,3108.59808,5
215,sub-05,1,15,vision,4,0.725,66.67513021,1.685293911,35,2851.379009,3113.620273,3115.121948,3,3118.125196,2,3120.127458,6,3126.117357,3127.802651,2
216,sub-05,1,16,vision,4,0.725,79.61132813,3.387156511,5,2851.379009,3129.838182,3131.339835,3.5,3134.826906,2,3136.829112,5,3141.817981,3145.205138,2
217,sub-05,1,17,vision,2,0.275,51.78645833,1.968949008,35,2851.379009,3147.224013,3148.725689,2.5,3151.228458,2,3153.230579,6,3159.220488,3161.189437,4
218,sub-05,1,18,vision,5,0.95,96.13932292,2.085726086,65,2851.379009,3165.210555,3166.712213,2.5,3169.214879,2,3171.217168,5,3176.205949,3178.291675,5
219,sub-05,1,19,vision,5,0.95,95,1.63518865,95,2851.379009,3183.313814,3184.815498,2.5,3187.318263,2,3189.32047,6,3195.310363,3196.945551,5
220,sub-05,1,20,vision,2,0.275,38.40559896,1.785279094,95,2851.379009,3201.96773,3203.469413,2,3205.471627,2,3207.47383,5,3212.462615,3214.247894,3
221,sub-05,1,21,vision,1,0.05,7.408854167,2.185761746,35,2851.379009,3217.267954,3218.769633,2,3220.771885,2,3222.77405,5,3227.762754,3229.948516,3
222,sub-05,1,22,vision,2,0.275,21.32226563,2.636296275,95,2851.379009,3232.968613,3234.470356,3.5,3237.974146,2,3239.976362,6,3245.966245,3248.602541,5
223,sub-05,1,23,vision,2,0.275,32.72135417,7.975528809,5,2851.379009,3253.624719,3255.126415,2,3257.128626,2,3259.130741,5,3264.119605,3272.095134,5
224,sub-05,1,24,vision,3,0.5,58.11588542,2.519499092,35,2851.379009,3277.117305,3278.618986,3,3281.622232,2,3283.62451,5,3288.613297,3291.132796,4
225,sub-05,1,25,vision,4,0.725,78.49088542,2.219157947,65,2851.379009,3295.153869,3296.655476,2.5,3299.158367,2,3301.160448,5,3306.149311,3308.368469,2
226,sub-05,2,1,pain,5,49,95.38151042,10.69532579,35,3332.226091,3332.227994,3333.729792,2,3335.682849,2,3337.684149,5,3342.722897,3353.418223,2
227,sub-05,2,2,pain,5,49,49.35742188,3.654131982,65,3332.226091,3355.453728,3356.955408,2.5,3359.381182,2,3361.37693,6,3367.433537,3371.087669,2
228,sub-05,2,3,pain,5,49,20.52604167,3.670857594,5,3332.226091,3373.123254,3374.624914,2,3376.551146,2,3378.545899,5,3383.601336,3387.272194,3
229,sub-05,2,4,pain,1,45,3.6328125,3.871053136,65,3332.226091,3390.292183,3391.793845,3,3394.735358,2,3396.7326,5,3401.788095,3405.659148,3
230,sub-05,2,5,pain,3,47,9.222005208,3.553988219,5,3332.226091,3409.046098,3410.547877,3.5,3413.985127,2,3415.987218,5,3421.042741,3424.596729,4
231,sub-05,2,6,pain,4,48,19.03645833,4.97220586,65,3332.226091,3428.617792,3430.119468,3.5,3433.559568,2,3435.558798,5,3440.614324,3445.58653,4
232,sub-05,2,7,pain,1,45,2.972005208,3.770894138,5,3332.226091,3449.607534,3451.109286,2.5,3453.548366,2,3455.547516,6,3461.60414,3465.375034,4
233,sub-05,2,8,pain,3,47,12.44401042,7.84203556,95,3332.226091,3469.396037,3470.897789,3.5,3474.337989,2,3476.337123,5,3481.392646,3489.234682,3
234,sub-05,2,9,pain,2,46,8.798177083,5.806489507,35,3332.226091,3492.254596,3493.756336,3,3496.697755,2,3498.695006,6,3504.751746,3510.558236,3
235,sub-05,2,10,pain,2,46,39.61783854,1.451737932,65,3332.226091,3513.578176,3515.079838,2,3517.021437,2,3519.017426,6,3525.074095,3526.525833,2
236,sub-05,2,11,pain,2,46,21.98828125,3.253713356,5,3332.226091,3528.561322,3530.063057,2.5,3532.489343,2,3534.484492,6,3540.54116,3543.794873,3
237,sub-05,2,12,pain,1,45,4.797526042,3.353752037,5,3332.226091,3546.814862,3548.316531,3.5,3551.75822,2,3553.755786,6,3559.812496,3563.166248,3
238,sub-05,2,13,pain,1,45,4.61328125,8.442767572,35,3332.226091,3566.186218,3567.687826,3,3570.62965,2,3572.626685,5,3577.682118,3586.124886,2
239,sub-05,2,14,pain,2,46,9.446614583,2.235903415,5,3332.226091,3588.143668,3589.645464,3.5,3593.087775,2,3595.084681,6,3601.141421,3603.377325,3
240,sub-05,2,15,pain,3,47,28.03515625,1.9022547,95,3332.226091,3606.397244,3607.898846,2.5,3610.340293,2,3612.337172,5,3617.392606,3619.29486,3
241,sub-05,2,16,pain,4,48,34.06835938,5.189182559,95,3332.226091,3622.314847,3623.816506,3.5,3627.258261,2,3629.255825,6,3635.312386,3640.501569,2
242,sub-05,2,17,pain,4,48,35.14973958,12.58070183,65,3332.226091,3642.537191,3644.038799,2,3645.965201,2,3647.959766,6,3654.016344,3666.597046,4
243,sub-05,2,18,pain,4,48,43.67578125,2.052400219,35,3332.226091,3670.618098,3672.119776,2.5,3674.559996,2,3676.558026,5,3681.613454,3683.665855,4
244,sub-05,2,19,pain,3,47,44.20377604,2.686390415,35,3332.226091,3687.686973,3689.18861,3.5,3692.628797,2,3694.627947,5,3699.683432,3702.369822,5
245,sub-05,2,20,pain,5,49,57.99479167,3.120238718,5,3332.226091,3707.391999,3708.893695,3,3711.832641,2,3713.83239,6,3719.88902,3723.009259,2
246,sub-05,2,21,pain,3,47,45.37239583,4.254755265,5,3332.226091,3725.044759,3726.546492,2.5,3728.972479,2,3730.967924,5,3736.023488,3740.278243,2
247,sub-05,2,22,pain,1,45,42.17382813,1.735369911,65,3332.226091,3742.297193,3743.798776,3,3746.741134,2,3748.737616,6,3754.794206,3756.529576,5
248,sub-05,2,23,pain,4,48,42.73632813,2.352648521,95,3332.226091,3761.551673,3763.053438,2,3764.991997,2,3766.991126,6,3773.047666,3775.400315,5
249,sub-05,2,24,pain,2,46,77.16341146,1.084649904,95,3332.226091,3780.422593,3781.924154,2.5,3784.363713,2,3786.362489,6,3792.419049,3793.503699,4
250,sub-05,2,25,pain,5,49,69.25520833,5.756471313,5,3332.226091,3797.524814,3799.026463,3.5,3802.466639,2,3804.465796,5,3809.521254,3815.277725,4
251,sub-06,1,1,vision,4,0.725,48.07096354,3.519990877,35,616.6844979,616.7209266,618.2224865,2,620.1913462,2,622.1936846,5,627.1996386,630.7196294,2
252,sub-06,1,2,vision,2,0.275,35.68294271,4.905397804,95,616.6844979,632.7551626,634.2568158,2.5,636.742895,2,638.7451964,5,643.7339564,648.6393542,5
253,sub-06,1,3,vision,5,0.95,91.4375,3.337066499,95,616.6844979,653.6615621,655.1632475,2,657.1654626,2,659.1677428,5,664.1564574,667.4935239,4
254,sub-06,1,4,vision,3,0.5,14.96158854,2.352608068,35,616.6844979,671.5146828,673.0163673,2.5,675.5190433,2,677.5213257,6,683.5111475,685.8637556,3
255,sub-06,1,5,vision,3,0.5,11.82617188,1.668615022,35,616.6844979,688.8837514,690.3855211,2,692.3877455,2,694.3899458,6,700.3797484,702.0483634,3
256,sub-06,1,6,vision,3,0.5,16.18880208,3.804298654,5,616.6844979,705.0682754,706.5700405,3.5,710.0737938,2,712.0760036,5,717.0649118,720.8692105,3
257,sub-06,1,7,vision,5,0.95,93.99348958,3.253660183,95,616.6844979,723.8891193,725.3907275,3.5,728.8946748,2,730.8967653,6,736.8867094,740.1403696,4
258,sub-06,1,8,vision,3,0.5,31.75911458,4.271410515,65,616.6844979,744.1614896,745.6631432,3,748.6665528,2,750.6686927,5,755.6574738,759.9288843,3
259,sub-06,1,9,vision,1,0.05,3.073567708,2.853273093,5,616.6844979,762.9489161,764.4505783,2,766.4526548,2,768.4549847,5,773.4436699,776.296943,4
260,sub-06,1,10,vision,1,0.05,3.218098958,4.455004027,95,616.6844979,780.3179568,781.8197276,2,783.8218199,2,785.8241502,6,791.8140386,796.2690426,5
261,sub-06,1,11,vision,3,0.5,45.20052083,2.552944924,65,616.6844979,801.2911276,802.7928765,3,805.7793852,2,807.7816965,6,813.7882171,816.341162,3
262,sub-06,1,12,vision,5,0.95,96.69661458,1.618404765,65,616.6844979,819.3610354,820.8627173,2.5,823.3655658,2,825.3677696,6,831.3576692,832.976074,4
263,sub-06,1,13,vision,5,0.95,92.37369792,2.23586039,65,616.6844979,836.9972439,838.4989508,2.5,841.001576,2,843.0038044,6,848.9937805,851.2296409,4
264,sub-06,1,14,vision,4,0.725,29.37565104,4.354723359,5,616.6844979,855.2507115,856.7523959,3.5,860.2562364,2,862.2583804,5,867.2472638,871.6019872,3
265,sub-06,1,15,vision,2,0.275,16.22916667,2.369313554,35,616.6844979,874.6220856,876.1237715,2,878.1258572,2,880.1280727,6,886.1180782,888.4873917,2
266,sub-06,1,16,vision,5,0.95,72.88606771,3.303703882,65,616.6844979,890.522996,892.0246098,3,895.0111987,2,897.0133938,6,903.0033741,906.307078,2
267,sub-06,1,17,vision,2,0.275,19.01822917,4.054628497,95,616.6844979,908.3426114,909.8442933,2.5,912.3303852,2,914.3325893,5,919.3212921,923.3759206,4
268,sub-06,1,18,vision,4,0.725,56.24023438,1.86881522,35,616.6844979,927.397016,928.8986321,2.5,931.4013904,2,933.4036218,5,938.3923846,940.2611998,2
269,sub-06,1,19,vision,1,0.05,2.477213542,3.153626541,5,616.6844979,942.2967557,943.7984436,3,946.7850652,2,948.7872664,5,953.7759531,956.9295796,2
270,sub-06,1,20,vision,1,0.05,4.289713542,4.555170055,95,616.6844979,958.948451,960.4501356,3,963.4533347,2,965.4556527,5,970.4443605,974.9995305,5
271,sub-06,1,21,vision,4,0.725,71.94726563,3.637392348,35,616.6844979,980.021612,981.5233827,3.5,985.0272574,2,987.029529,5,992.0182496,995.655642,4
272,sub-06,1,22,vision,2,0.275,55.00585938,2.819683933,65,616.6844979,999.6766336,1001.178396,3.5,1004.682268,2,1006.684396,6,1012.674431,1015.494115,4
273,sub-06,1,23,vision,4,0.725,65.68164063,3.27038698,65,616.6844979,1019.515279,1021.016952,2.5,1023.519731,2,1025.521847,6,1031.511757,1034.782144,2
274,sub-06,1,24,vision,1,0.05,15.07226563,3.253726296,95,616.6844979,1036.80105,1038.302659,2.5,1040.805379,2,1042.807663,5,1047.796361,1051.050088,2
275,sub-06,1,25,vision,2,0.275,30.65690104,3.003429057,5,616.6844979,1053.085587,1054.587205,3,1057.573881,2,1059.576147,6,1065.565989,1068.569418,3
276,sub-06,2,1,pain,5,49,81.25325521,5.83971771,35,1089.106733,1089.125461,1090.627086,3.5,1094.073817,2,1096.082992,6,1102.106368,1107.946086,3
277,sub-06,2,2,pain,3,47,37.78255208,3.05344855,95,1089.106733,1110.966196,1112.467734,3.5,1115.908004,2,1117.907069,5,1122.962704,1126.016153,2
278,sub-06,2,3,pain,1,45,40.19401042,2.953388484,95,1089.106733,1128.051629,1129.553371,2,1131.479362,2,1133.474326,6,1139.530909,1142.484297,4
279,sub-06,2,4,pain,3,47,45.40559896,3.036855837,35,1089.106733,1146.505374,1148.006937,2,1149.947811,2,1151.944718,5,1157.000144,1160.037,5
280,sub-06,2,5,pain,4,48,49.35286458,4.63843273,35,1089.106733,1165.059247,1166.560867,2,1168.498888,2,1170.498536,6,1176.555159,1181.193591,3
281,sub-06,2,6,pain,3,47,41.73697917,2.686420665,5,1089.106733,1184.213557,1185.71531,2,1187.655651,2,1189.653123,5,1194.708467,1197.394888,4
282,sub-06,2,7,pain,1,45,10.44270833,2.068927191,35,1089.106733,1201.415946,1202.91756,2.5,1205.357921,2,1207.355755,5,1212.411394,1214.480321,5
283,sub-06,2,8,pain,2,46,24.00195313,5.52269843,5,1089.106733,1219.50248,1221.004176,2,1222.942613,2,1224.941861,6,1230.998569,1236.521268,2
284,sub-06,2,9,pain,3,47,48.46614583,7.508408271,65,1089.106733,1238.556954,1240.058721,3.5,1243.484404,2,1245.481144,6,1251.537828,1259.046236,4
285,sub-06,2,10,pain,1,45,22.5,4.505015703,35,1089.106733,1263.067212,1264.568992,3,1267.508539,2,1269.507692,5,1274.563301,1279.068317,2
286,sub-06,2,11,pain,5,49,28.63671875,4.688640678,5,1089.106733,1281.103773,1282.60555,2.5,1285.031179,2,1287.026981,6,1293.08365,1297.77229,2
287,sub-06,2,12,pain,2,46,13.80078125,2.419468664,65,1089.106733,1299.807866,1301.309554,3.5,1304.735526,2,1306.732181,6,1312.788722,1315.208191,4
288,sub-06,2,13,pain,5,49,62.64127604,6.840947077,35,1089.106733,1319.229204,1320.730945,2.5,1323.16939,2,1325.169176,5,1330.224701,1337.065648,5
289,sub-06,2,14,pain,1,45,10.55338542,5.856518779,5,1089.106733,1342.087732,1343.589504,3,1346.527823,2,1348.528279,5,1353.583811,1359.44033,3
290,sub-06,2,15,pain,5,49,78.10481771,3.286928624,5,1089.106733,1362.460334,1363.96186,3.5,1367.403278,2,1369.401204,6,1375.457918,1378.744846,3
291,sub-06,2,16,pain,1,45,11.9296875,6.256891439,95,1089.106733,1381.764919,1383.26652,3,1386.207946,2,1388.205388,5,1393.260908,1399.5178,2
292,sub-06,2,17,pain,2,46,23.1328125,2.035722841,5,1089.106733,1401.553448,1403.054989,3,1405.981066,2,1407.977104,6,1414.03374,1416.069463,5
293,sub-06,2,18,pain,2,46,38.015625,3.120159322,5,1089.106733,1421.091642,1422.593327,3.5,1426.033314,2,1428.03266,5,1433.088118,1436.208277,5
294,sub-06,2,19,pain,3,47,48.39192708,2.319237304,5,1089.106733,1441.2305,1442.732205,3.5,1446.170274,2,1448.171465,6,1454.228139,1456.547376,5
295,sub-06,2,20,pain,4,48,51.62174479,3.754172784,95,1089.106733,1461.569647,1463.071315,3.5,1466.509502,2,1468.510647,5,1473.566096,1477.320269,5
296,sub-06,2,21,pain,5,49,69.77148438,3.170309139,65,1089.106733,1482.342603,1483.844151,3,1486.781857,2,1488.782933,5,1493.838459,1497.008768,5
297,sub-06,2,22,pain,4,48,53.44205729,2.419471662,65,1089.106733,1502.030846,1503.532543,2.5,1505.971945,2,1507.970849,6,1514.027411,1516.446882,4
298,sub-06,2,23,pain,4,48,41.97070313,3.904441949,65,1089.106733,1520.467942,1521.969603,2,1523.908723,2,1525.907231,5,1530.96275,1534.867192,2
299,sub-06,2,24,pain,2,46,6.790364583,1.885556482,65,1089.106733,1536.90265,1538.404469,2.5,1540.830601,2,1542.825868,6,1548.882516,1550.768073,3
300,sub-06,2,25,pain,4,48,54.71419271,5.205857644,95,1089.106733,1553.788035,1555.289721,3,1558.230645,2,1560.228511,6,1566.285071,1571.490929,3
301,sub-08,1,1,vision,4,0.725,65.40039063,2.803159044,35,4548.410342,4548.462392,4549.963922,2,4551.91623,2,4553.918393,6,4559.908282,4562.711441,3
302,sub-08,1,2,vision,1,0.05,55.90429688,1.902221711,65,4548.410342,4565.748082,4567.249739,2,4569.235219,2,4571.237531,5,4576.226223,4578.128445,4
303,sub-08,1,3,vision,3,0.5,68.59635417,3.036790722,95,4548.410342,4582.14953,4583.651196,3.5,4587.155066,2,4589.15727,5,4594.146006,4597.182797,3
304,sub-08,1,4,vision,2,0.275,57.85677083,3.871003859,5,4548.410342,4600.202694,4601.704447,3.5,4605.208315,2,4607.210521,6,4613.200404,4617.071408,2
305,sub-08,1,5,vision,5,0.95,83.24153646,1.885519761,65,4548.410342,4619.090306,4620.591946,2.5,4623.094611,2,4625.096932,5,4630.085643,4631.971162,5
306,sub-08,1,6,vision,1,0.05,43.20768229,2.302616458,5,4548.410342,4636.993263,4638.495084,2,4640.497257,2,4642.499369,6,4648.489332,4650.791949,2
307,sub-08,1,7,vision,1,0.05,48.18684896,3.303795502,35,4548.410342,4652.81072,4654.3124,2.5,4656.815315,2,4658.817461,6,4664.80729,4668.111086,2
308,sub-08,1,8,vision,4,0.725,59.49153646,3.80426917,35,4548.410342,4670.129911,4671.631591,3.5,4675.135387,2,4677.13759,6,4683.127537,4686.931806,2
309,sub-08,1,9,vision,4,0.725,62.96223958,2.652951778,95,4548.410342,4688.967359,4690.469049,2,4692.454568,2,4694.456661,5,4699.445509,4702.098461,5
310,sub-08,1,10,vision,2,0.275,48.88411458,1.251378401,95,4548.410342,4707.120654,4708.622397,3,4711.625759,2,4713.627842,6,4719.617743,4720.869121,5
311,sub-08,1,11,vision,5,0.95,80.48046875,1.435040415,5,4548.410342,4725.891319,4727.393032,2.5,4729.895876,2,4731.898116,5,4736.886793,4738.321833,4
312,sub-08,1,12,vision,4,0.725,83.63997396,4.454862384,5,4548.410342,4742.342847,4743.84451,2,4745.846804,2,4747.849018,5,4752.837789,4757.292651,5
313,sub-08,1,13,vision,5,0.95,86.63736979,2.953388519,35,4548.410342,4762.314879,4763.816673,2.5,4766.319318,2,4768.321515,6,4774.311411,4777.264799,5
314,sub-08,1,14,vision,3,0.5,51.42447917,3.353824074,35,4548.410342,4782.286893,4783.788712,2,4785.790887,2,4787.793,5,4792.781796,4796.13562,2
315,sub-08,1,15,vision,5,0.95,90.19401042,1.685262157,65,4548.410342,4798.154417,4799.656171,2.5,4802.158931,2,4804.161075,6,4810.151011,4811.836273,2
316,sub-08,1,16,vision,3,0.5,66.00585938,4.121348001,65,4548.410342,4813.855139,4815.356798,3.5,4818.860609,2,4820.86295,6,4826.852705,4830.974053,4
317,sub-08,1,17,vision,3,0.5,62.95963542,3.704241329,35,4548.410342,4834.995138,4836.496823,3.5,4840.00069,2,4842.002886,5,4846.99159,4850.695831,3
318,sub-08,1,18,vision,1,0.05,32.91145833,2.986726874,65,4548.410342,4853.715712,4855.217385,2.5,4857.720279,2,4859.72244,6,4865.712286,4868.699013,3
319,sub-08,1,19,vision,2,0.275,45.69856771,2.102460891,5,4548.410342,4871.718889,4873.220661,2,4875.22277,2,4877.224998,5,4882.213783,4884.316244,5
320,sub-08,1,20,vision,4,0.725,48.17513021,3.453851116,95,4548.410342,4889.338329,4890.840102,3,4893.843442,2,4895.845623,6,4901.835524,4905.289375,5
321,sub-08,1,21,vision,2,0.275,42.86653646,4.238022579,95,4548.410342,4910.311563,4911.813277,3,4914.816487,2,4916.818681,5,4921.807559,4926.045582,4
322,sub-08,1,22,vision,5,0.95,65,2.41945753,65,4548.410342,4930.066596,4931.568411,3,4934.571679,2,4936.573891,6,4942.563723,4944.983181,3
323,sub-08,1,23,vision,2,0.275,37.3125,3.136912198,5,4548.410342,4948.003194,4949.504708,2.5,4952.007634,2,4954.009792,5,4958.998483,4962.135395,3
324,sub-08,1,24,vision,3,0.5,46.75520833,4.388276832,95,4548.410342,4965.155307,4966.657,3.5,4970.160947,2,4972.163173,5,4977.151858,4981.540135,3
325,sub-08,1,25,vision,1,0.05,15.01497396,2.686428626,5,4548.410342,4984.560152,4986.061819,3,4989.065135,2,4991.067376,6,4997.057152,4999.743581,2
326,sub-08,2,1,pain,4,48,38.88867188,5.239164635,35,5010.253136,5010.255176,5011.756836,3.5,5015.219684,2,5017.212829,5,5022.251626,5027.49079,5
327,sub-08,2,2,pain,3,47,30.99869792,3.570621585,65,5010.253136,5032.51306,5034.014722,2,5035.952973,2,5037.952422,6,5044.009,5047.579622,2
328,sub-08,2,3,pain,4,48,33.83007813,3.07012201,5,5010.253136,5049.615184,5051.116924,3.5,5054.542761,2,5056.53946,5,5061.595086,5064.665208,4
329,sub-08,2,4,pain,2,46,24.58854167,3.053496067,5,5010.253136,5068.686326,5070.187974,2,5072.127897,2,5074.125662,5,5079.181101,5082.234598,3
330,sub-08,2,5,pain,2,46,25.43815104,3.520689438,65,5010.253136,5085.254568,5086.756253,2.5,5089.197707,2,5091.194445,6,5097.251021,5100.771711,2
331,sub-08,2,6,pain,3,47,12.41015625,2.819900748,65,5010.253136,5102.790489,5104.292269,2.5,5106.734132,2,5108.7305,5,5113.785945,5116.605846,5
332,sub-08,2,7,pain,1,45,38.61067708,1.935601864,65,5010.253136,5121.627956,5123.129715,2,5125.068116,2,5127.067383,5,5132.12283,5134.058432,2
333,sub-08,2,8,pain,5,49,28.34700521,1.718571299,5,5010.253136,5136.093918,5137.595666,3,5140.521559,2,5142.517774,6,5148.574368,5150.292939,3
334,sub-08,2,9,pain,4,48,20.17122396,2.369428895,5,5010.253136,5153.312977,5154.814664,3.5,5158.254727,2,5160.253996,6,5166.310545,5168.679974,5
335,sub-08,2,10,pain,2,46,10.85026042,3.95446723,95,5010.253136,5173.702178,5175.203824,2.5,5177.642485,2,5179.64206,6,5185.69861,5189.653077,3
336,sub-08,2,11,pain,4,48,21.55208333,2.61974828,35,5010.253136,5192.673069,5194.174762,3,5197.114291,2,5199.113461,6,5205.170092,5207.78984,3
337,sub-08,2,12,pain,5,49,72.24609375,1.801992781,95,5010.253136,5210.809678,5212.31144,2.5,5214.751741,2,5216.749658,5,5221.805203,5223.607195,3
338,sub-08,2,13,pain,1,45,12.93424479,1.618577797,35,5010.253136,5226.627226,5228.12888,3.5,5231.570698,2,5233.568128,6,5239.624771,5241.243349,4
339,sub-08,2,14,pain,5,49,34.06770833,2.869964921,95,5010.253136,5245.264439,5246.76611,3,5249.705711,2,5251.704898,5,5256.760337,5259.630302,4
340,sub-08,2,15,pain,3,47,33.62369792,3.30377427,35,5010.253136,5263.651293,5265.153058,2.5,5267.592598,2,5269.5913,5,5274.646739,5277.950513,5
341,sub-08,2,16,pain,3,47,11.60416667,2.436233032,5,5010.253136,5282.972705,5284.474377,2,5286.41204,2,5288.411974,5,5293.467502,5295.903735,2
342,sub-08,2,17,pain,5,49,22.35091146,1.868884793,95,5010.253136,5297.93924,5299.440896,3,5302.366499,2,5304.362954,5,5309.418404,5311.287288,3
343,sub-08,2,18,pain,2,46,13.23111979,3.170304965,35,5010.253136,5314.307175,5315.808987,2,5317.750066,2,5319.746621,5,5324.802067,5327.972372,4
344,sub-08,2,19,pain,2,46,12.39583333,1.501802788,65,5010.253136,5331.993488,5333.495122,3,5336.434705,2,5338.433841,6,5344.490456,5345.992259,4
345,sub-08,2,20,pain,1,45,13.48697917,1.935576334,95,5010.253136,5350.013233,5351.515012,2,5353.455642,2,5355.452603,6,5361.509261,5363.444838,5
346,sub-08,2,21,pain,4,48,19.47070313,3.870978861,65,5010.253136,5368.466936,5369.968776,3.5,5373.406744,2,5375.408031,5,5380.463569,5384.334548,4
347,sub-08,2,22,pain,5,49,34.82356771,3.270357732,65,5010.253136,5388.355623,5389.857344,3.5,5393.297378,2,5395.296647,6,5401.353277,5404.623635,4
348,sub-08,2,23,pain,1,45,10.39322917,4.271402043,35,5010.253136,5408.64459,5410.146351,3.5,5413.586411,2,5415.585692,6,5421.64235,5425.913752,4
349,sub-08,2,24,pain,1,45,7.606770833,2.152464484,5,5010.253136,5429.934745,5431.436512,2.5,5433.875443,2,5435.874663,6,5441.931337,5444.083802,4
350,sub-08,2,25,pain,3,47,13.10286458,1.968971053,95,5010.253136,5448.104874,5449.606487,3,5452.546064,2,5454.545254,5,5459.600783,5461.569754,2
351,sub-09,1,1,vision,2,0.275,20.00520833,14.56616671,5,8236.732213,8236.78469,8238.286357,2.5,8240.739076,2,8242.741355,5,8247.730098,8262.296265,4
352,sub-09,1,2,vision,5,0.95,93.91210938,25.32807745,35,8236.732213,8266.317339,8267.819021,3.5,8271.322896,2,8273.325094,5,8278.313799,8303.641876,2
353,sub-09,1,3,vision,3,0.5,29.36979167,3.237047852,5,8236.732213,8305.660741,8307.162441,2,8309.164565,2,8311.166762,5,8316.155547,8319.392595,4
354,sub-09,1,4,vision,3,0.5,33.84114583,4.054579818,35,8236.732213,8323.413674,8324.915335,2.5,8327.418142,2,8329.420232,5,8334.409048,8338.463628,5
355,sub-09,1,5,vision,1,0.05,16.92643229,3.920959616,95,8236.732213,8343.485807,8344.98741,3,8347.990822,2,8349.993023,6,8355.982882,8359.903842,4
356,sub-09,1,6,vision,1,0.05,10.19791667,2.920000566,95,8236.732213,8363.924937,8365.426701,3,8368.429957,2,8370.432226,6,8376.422065,8379.342066,5
357,sub-09,1,7,vision,1,0.05,6.473958333,2.819822497,35,8236.732213,8384.364149,8385.865925,3,8388.869167,2,8390.871456,6,8396.861352,8399.681174,2
358,sub-09,1,8,vision,3,0.5,59.18880208,3.654149793,95,8236.732213,8401.70006,8403.201654,3.5,8406.7056,2,8408.707803,6,8414.697619,8418.351768,3
359,sub-09,1,9,vision,1,0.05,7.69140625,2.636386647,5,8236.732213,8421.37173,8422.873418,2,8424.87555,2,8426.877831,6,8432.867654,8435.504041,5
360,sub-09,1,10,vision,5,0.95,94.60286458,4.788643458,5,8236.732213,8440.526233,8442.027925,3,8445.031207,2,8447.033265,6,8453.023311,8457.811954,3
361,sub-09,1,11,vision,5,0.95,93.81770833,3.854279079,35,8236.732213,8460.831965,8462.33362,3.5,8465.837498,2,8467.839664,5,8472.828513,8476.682793,2
362,sub-09,1,12,vision,4,0.725,48.18880208,2.636356786,35,8236.732213,8478.718269,8480.220021,2.5,8482.706099,2,8484.708319,5,8489.697023,8492.33338,4
363,sub-09,1,13,vision,4,0.725,39.67838542,3.520676743,95,8236.732213,8496.354375,8497.856142,2.5,8500.358801,2,8502.361113,5,8507.349826,8510.870503,3
364,sub-09,1,14,vision,5,0.95,94.05403646,3.453914951,65,8236.732213,8513.890471,8515.392155,3,8518.395408,2,8520.397678,5,8525.386421,8528.840336,5
365,sub-09,1,15,vision,5,0.95,93.54036458,2.519584899,65,8236.732213,8533.862523,8535.36424,2,8537.366337,2,8539.368606,5,8544.357309,8546.876894,5
366,sub-09,1,16,vision,4,0.725,42.60546875,3.403805372,65,8236.732213,8551.898992,8553.400754,2,8555.40297,2,8557.405172,6,8563.395067,8566.798872,2
367,sub-09,1,17,vision,3,0.5,32.3671875,2.920017812,65,8236.732213,8568.834456,8570.336136,2.5,8572.822192,2,8574.824396,5,8579.8131,8582.733118,5
368,sub-09,1,18,vision,3,0.5,32.77929688,2.486195482,5,8236.732213,8587.755306,8589.256982,2.5,8591.759745,2,8593.761983,6,8599.751775,8602.23797,3
369,sub-09,1,19,vision,4,0.725,45.43424479,3.53738302,35,8236.732213,8605.257856,8606.759625,2,8608.761839,2,8610.764042,6,8616.753852,8620.291235,4
370,sub-09,1,20,vision,2,0.275,26.84960938,2.035721815,65,8236.732213,8624.31231,8625.81395,3,8628.817303,2,8630.819425,6,8636.80931,8638.845032,3
371,sub-09,1,21,vision,2,0.275,29.97395833,2.97002127,35,8236.732213,8641.864995,8643.366676,3.5,8646.870441,2,8648.872755,6,8654.862614,8657.832635,2
372,sub-09,1,22,vision,4,0.725,56.96028646,3.270384414,65,8236.732213,8659.868143,8661.369779,3.5,8664.856976,2,8666.859261,5,8671.848004,8675.118388,5
373,sub-09,1,23,vision,2,0.275,43.25585938,3.971179476,95,8236.732213,8680.140482,8681.642236,3.5,8685.146111,2,8687.148231,5,8692.137016,8696.108195,4
374,sub-09,1,24,vision,2,0.275,37.79622396,2.703062921,5,8236.732213,8700.129197,8701.63084,3,8704.634208,2,8706.636493,5,8711.625202,8714.328265,2
375,sub-09,1,25,vision,1,0.05,10.29947917,4.221315708,95,8236.732213,8716.363763,8717.865533,2.5,8720.351611,2,8722.353816,6,8728.343689,8732.565005,2
376,sub-09,2,1,pain,2,46,42.04557292,4.08795149,35,8741.990108,8741.992108,8743.493805,2.5,8745.946915,2,8747.948722,5,8752.987507,8757.075459,2
377,sub-09,2,2,pain,1,45,22.56705729,4.03791793,95,8741.990108,8759.094288,8760.595923,3.5,8764.038165,2,8766.035349,6,8772.091897,8776.129815,4
378,sub-09,2,3,pain,4,48,71.05859375,2.352707078,95,8741.990108,8780.150889,8781.652484,2,8783.593279,2,8785.590248,5,8790.645683,8792.998391,3
379,sub-09,2,4,pain,3,47,19.37565104,2.669707004,65,8741.990108,8796.018393,8797.520019,3,8800.461489,2,8802.458858,5,8807.514317,8810.184024,2
380,sub-09,2,5,pain,2,46,12.71419271,3.770865285,65,8741.990108,8812.219551,8813.721329,2.5,8816.147603,2,8818.142823,6,8824.199399,8827.970264,5
381,sub-09,2,6,pain,5,49,62.18164063,3.587393435,95,8741.990108,8832.992519,8834.494203,2.5,8836.932984,2,8838.932438,5,8843.987879,8847.575272,4
382,sub-09,2,7,pain,5,49,61.94075521,2.602915862,95,8741.990108,8851.596376,8853.098062,3.5,8856.538251,2,8858.53731,6,8864.593953,8867.196869,2
383,sub-09,2,8,pain,2,46,16.61588542,6.156910274,65,8741.990108,8869.215766,8870.717502,3.5,8874.159736,2,8876.156756,5,8881.212294,8887.369205,4
384,sub-09,2,9,pain,4,48,44.27083333,8.459461898,5,8741.990108,8891.390198,8892.891951,3.5,8896.332081,2,8898.331298,5,8903.386745,8911.846207,3
385,sub-09,2,10,pain,3,47,15.24674479,5.005598608,5,8741.990108,8914.86611,8916.367866,2.5,8918.808956,2,8920.806065,5,8925.861597,8930.867195,3
386,sub-09,2,11,pain,4,48,39.92057292,7.558399043,5,8741.990108,8933.887099,8935.38887,3.5,8938.82906,2,8940.828182,5,8945.88363,8953.442029,4
387,sub-09,2,12,pain,1,45,13.98372396,3.387155206,35,8741.990108,8957.463218,8958.964857,2.5,8961.403914,2,8963.402997,6,8969.459703,8972.846858,4
388,sub-09,2,13,pain,3,47,12.88606771,3.554028881,5,8741.990108,8976.86783,8978.369571,2,8980.310034,2,8982.3072,6,8988.36386,8991.917889,5
389,sub-09,2,14,pain,1,45,3.36328125,2.235874495,5,8741.990108,8996.939976,8998.441787,3,9001.380747,2,9003.380527,6,9009.43713,9011.673004,3
390,sub-09,2,15,pain,5,49,87.51757813,5.372719286,95,8741.990108,9014.692925,9016.194585,2,9018.136071,2,9020.132337,6,9026.188897,9031.561616,5
391,sub-09,2,16,pain,4,48,50.64713542,3.303790581,35,8741.990108,9036.583834,9038.085481,3,9041.02391,2,9043.024262,6,9049.08081,9052.3846,5
392,sub-09,2,17,pain,3,47,29.109375,3.687435033,65,8741.990108,9057.406702,9058.908462,3,9061.847424,2,9063.847228,5,9068.902779,9072.590214,2
393,sub-09,2,18,pain,2,46,17.89257813,3.136910855,65,8741.990108,9074.608995,9076.110805,3.5,9079.552893,2,9081.550007,5,9086.60556,9089.742471,3
394,sub-09,2,19,pain,5,49,75.98111979,4.171419002,35,8741.990108,9092.762397,9094.264134,2,9096.205189,2,9098.201806,5,9103.257253,9107.428672,4
395,sub-09,2,20,pain,5,49,83.9609375,4.571836564,65,8741.990108,9111.449637,9112.951324,2,9114.891443,2,9116.889097,6,9122.94566,9127.517496,4
396,sub-09,2,21,pain,1,45,6.416015625,2.352725025,35,8741.990108,9131.538485,9133.040282,2,9134.980685,2,9136.977917,6,9143.034468,9145.387193,5
397,sub-09,2,22,pain,2,46,4.1875,3.904271641,95,8741.990108,9150.409307,9151.910944,3,9154.84991,2,9156.849841,6,9162.906484,9166.810756,2
398,sub-09,2,23,pain,4,48,43.28776042,3.487322938,65,8741.990108,9168.846331,9170.348069,2.5,9172.774056,2,9174.769613,6,9180.826155,9184.313478,3
399,sub-09,2,24,pain,3,47,33.92057292,3.103546024,35,8741.990108,9187.333439,9188.835138,3,9191.777069,2,9193.77389,6,9199.830469,9202.934016,3
400,sub-09,2,25,pain,1,45,3.326822917,4.988965699,5,8741.990108,9205.953989,9207.455711,3.5,9210.897208,2,9212.895006,5,9217.950458,9222.939423,5
401,sub-10,1,1,vision,4,0.725,66.10481771,5.339286779,95,2003.912046,2003.947433,2005.449002,3.5,2008.91958,2,2010.921696,5,2015.91055,2021.249837,2
402,sub-10,1,2,vision,2,0.275,61.78385417,4.071172772,65,2003.912046,2023.285337,2024.787078,3.5,2028.274263,2,2030.27646,5,2035.265256,2039.336429,5
403,sub-10,1,3,vision,1,0.05,20.90494792,2.936636719,65,2003.912046,2044.35858,2045.860319,2,2047.862455,2,2049.86474,5,2054.853522,2057.790158,3
404,sub-10,1,4,vision,2,0.275,47.35416667,1.451541876,35,2003.912046,2060.810119,2062.311803,2.5,2064.814487,2,2066.816772,6,2072.806665,2074.258207,3
405,sub-10,1,5,vision,4,0.725,85.79557292,1.835404108,95,2003.912046,2077.278223,2078.779981,2.5,2081.282655,2,2083.284945,6,2089.274849,2091.110253,5
406,sub-10,1,6,vision,3,0.5,78.48828125,1.918805445,95,2003.912046,2096.132352,2097.634099,2,2099.636326,2,2101.638522,5,2106.627231,2108.546036,5
407,sub-10,1,7,vision,2,0.275,28.15364583,1.401542562,65,2003.912046,2113.568333,2115.070016,2,2117.072234,2,2119.074399,6,2125.064267,2126.465809,2
408,sub-10,1,8,vision,3,0.5,38.23242188,3.220269055,5,2003.912046,2128.484725,2129.986465,3,2132.989708,2,2134.992003,5,2139.980776,2143.201045,2
409,sub-10,1,9,vision,5,0.95,97.46549479,2.169092439,5,2003.912046,2145.236624,2146.738284,3.5,2150.225464,2,2152.227669,5,2157.216472,2159.385564,3
410,sub-10,1,10,vision,4,0.725,76.76041667,3.086781903,65,2003.912046,2162.405536,2163.907221,3,2166.910559,2,2168.912732,6,2174.902643,2177.989425,4
411,sub-10,1,11,vision,1,0.05,0.970052083,1.885467567,35,2003.912046,2182.010538,2183.512108,3.5,2187.016056,2,2189.018258,5,2194.007044,2195.892512,3
412,sub-10,1,12,vision,2,0.275,12.05338542,1.768651369,5,2003.912046,2198.912396,2200.41417,2,2202.416294,2,2204.418584,6,2210.408424,2212.177076,5
413,sub-10,1,13,vision,1,0.05,1.8828125,1.585211023,65,2003.912046,2217.199321,2218.700925,2.5,2221.203779,2,2223.205991,5,2228.194702,2229.779913,5
414,sub-10,1,14,vision,1,0.05,1.962239583,1.518440009,5,2003.912046,2234.802087,2236.303763,2,2238.305857,2,2240.308179,6,2246.298032,2247.816472,5
415,sub-10,1,15,vision,2,0.275,23.37890625,2.552939407,5,2003.912046,2252.838585,2254.34024,2.5,2256.843043,2,2258.845293,6,2264.835114,2267.388053,3
416,sub-10,1,16,vision,4,0.725,90.90820313,3.220358839,5,2003.912046,2270.408021,2271.909752,3.5,2275.413497,2,2277.415804,6,2283.405584,2286.625943,4
417,sub-10,1,17,vision,3,0.5,71.85742188,2.78649486,65,2003.912046,2290.646939,2292.148703,2,2294.150835,2,2296.153037,6,2302.142964,2304.929459,4
418,sub-10,1,18,vision,1,0.05,1.665364583,2.352729193,95,2003.912046,2308.950578,2310.452161,3,2313.455474,2,2315.457666,5,2320.446459,2322.799188,5
419,sub-10,1,19,vision,3,0.5,56.09440104,1.802150604,35,2003.912046,2327.821364,2329.323045,3,2332.326373,2,2334.328592,5,2339.317251,2341.119402,3
420,sub-10,1,20,vision,5,0.95,100,1.318200175,95,2003.912046,2344.139369,2345.641054,2.5,2348.143812,2,2350.146029,5,2355.134779,2356.452979,5
421,sub-10,1,21,vision,5,0.95,99.66666667,3.387112261,95,2003.912046,2361.475176,2362.976843,3,2365.980144,2,2367.982382,6,2373.972266,2377.359378,2
422,sub-10,1,22,vision,3,0.5,10.30794271,1.835503444,5,2003.912046,2379.378246,2380.87986,2.5,2383.382665,2,2385.3849,6,2391.374699,2393.210202,3
423,sub-10,1,23,vision,5,0.95,97.23307292,2.602976176,65,2003.912046,2396.230082,2397.731856,3,2400.735096,2,2402.73741,6,2408.727187,2411.330163,4
424,sub-10,1,24,vision,5,0.95,96.08138021,1.818824566,35,2003.912046,2415.35118,2416.852961,3.5,2420.356738,2,2422.359024,5,2427.347723,2429.166548,3
425,sub-10,1,25,vision,4,0.725,86.06054688,2.41935001,35,2003.912046,2432.18654,2433.688189,3.5,2437.192067,2,2439.194269,6,2445.184079,2447.603429,2
426,sub-10,2,1,pain,2,46,69.07552083,3.754172143,5,2497.456466,2497.458511,2498.960199,2.5,2501.412901,2,2503.415118,6,2509.455007,2513.209179,4
427,sub-10,2,2,pain,5,49,83.91992188,3.036721752,5,2497.456466,2517.230329,2518.732022,3.5,2522.172109,2,2524.17126,6,2530.227991,2533.264713,2
428,sub-10,2,3,pain,1,45,27.56184896,3.420582406,35,2497.456466,2535.283537,2536.785265,2.5,2539.227667,2,2541.223383,5,2546.278926,2549.699509,3
429,sub-10,2,4,pain,4,48,68.06315104,2.452828187,65,2497.456466,2552.719411,2554.221168,3,2557.162321,2,2559.159958,5,2564.215402,2566.66823,4
430,sub-10,2,5,pain,5,49,65.47460938,2.035711325,95,2497.456466,2570.689325,2572.190903,2.5,2574.631333,2,2576.629219,6,2582.685775,2584.721487,2
431,sub-10,2,6,pain,1,45,9.631510417,1.168107254,35,2497.456466,2586.756938,2588.258729,3.5,2591.684406,2,2593.681342,6,2599.737903,2600.90601,4
432,sub-10,2,7,pain,1,45,10.73958333,1.268185607,35,2497.456466,2604.927004,2606.428772,2.5,2608.868631,2,2610.866996,6,2616.923554,2618.19174,4
433,sub-10,2,8,pain,3,47,18.26367188,2.35272219,35,2497.456466,2622.212827,2623.714499,3,2626.654071,2,2628.653293,6,2634.709841,2637.062563,3
434,sub-10,2,9,pain,2,46,16.70182292,3.070166951,95,2497.456466,2640.08245,2641.584103,3.5,2645.025638,2,2647.023553,5,2652.079008,2655.149175,5
435,sub-10,2,10,pain,4,48,64.43229167,3.954489545,5,2497.456466,2660.171295,2661.672961,2,2663.611338,2,2665.610722,5,2670.666177,2674.620666,3
436,sub-10,2,11,pain,1,45,47.56901042,1.234756933,65,2497.456466,2677.640637,2679.142318,2,2681.08331,2,2683.080068,5,2688.135451,2689.370208,2
437,sub-10,2,12,pain,5,49,75.28320313,2.152511797,65,2497.456466,2691.405778,2692.907521,3.5,2696.334318,2,2698.330119,5,2703.385599,2705.53811,4
438,sub-10,2,13,pain,1,45,22.55338542,3.153523589,5,2497.456466,2709.559116,2711.060868,3.5,2714.50099,2,2716.500203,5,2721.555737,2724.709261,5
439,sub-10,2,14,pain,2,46,15.33333333,3.587317539,95,2497.456466,2729.731352,2731.23312,2,2733.171546,2,2735.170669,5,2740.226347,2743.813664,2
440,sub-10,2,15,pain,3,47,16.15950521,1.902216787,5,2497.456466,2745.832578,2747.334232,3,2750.276341,2,2752.27297,5,2757.328475,2759.230692,4
441,sub-10,2,16,pain,3,47,9.444010417,2.269308979,35,2497.456466,2763.251704,2764.753436,3,2767.693009,2,2769.69219,6,2775.748776,2778.018085,4
442,sub-10,2,17,pain,3,47,13.68229167,1.985527755,95,2497.456466,2782.039147,2783.540762,2,2785.481432,2,2787.478509,6,2793.535064,2795.520592,2
443,sub-10,2,18,pain,4,48,53.21744792,3.387134511,65,2497.456466,2797.539492,2799.041263,2.5,2801.483545,2,2803.479509,5,2808.53494,2811.922075,5
444,sub-10,2,19,pain,5,49,69.30338542,2.586152043,35,2497.456466,2816.944264,2818.446004,2.5,2820.885132,2,2822.884235,6,2828.940875,2831.527027,2
445,sub-10,2,20,pain,4,48,60.41145833,3.020076656,35,2497.456466,2833.562694,2835.064255,2,2836.990346,2,2838.985303,6,2845.04187,2848.061946,5
446,sub-10,2,21,pain,2,46,8.59765625,2.068988877,5,2497.456466,2853.08421,2854.585764,2.5,2857.024496,2,2859.024106,5,2864.079644,2866.148633,4
447,sub-10,2,22,pain,4,48,71.89388021,1.067887573,65,2497.456466,2870.169725,2871.6714,3.5,2875.111387,2,2877.110729,6,2883.167365,2884.235252,2
448,sub-10,2,23,pain,5,49,77.68229167,3.637493796,35,2497.456466,2886.27075,2887.772416,2,2889.698602,2,2891.69337,5,2896.748926,2900.38642,3
449,sub-10,2,24,pain,3,47,62.64322917,2.25261455,95,2497.456466,2903.406396,2904.908062,3,2907.849343,2,2909.846759,5,2914.902295,2917.154909,4
450,sub-10,2,25,pain,2,46,49.47070313,2.402800135,95,2497.456466,2921.175982,2922.67767,2,2924.617909,2,2926.615359,6,2932.671871,2935.074671,2
451,sub-11,1,1,vision,2,0.275,16.73111979,2.369487563,95,8220.082682,8220.134723,8221.636378,3.5,8225.090049,2,8227.092389,6,8233.082176,8235.451664,2
452,sub-11,1,2,vision,4,0.725,73.34244792,1.718731028,65,8220.082682,8237.487109,8238.988845,3,8241.975517,2,8243.977698,6,8249.967468,8251.686199,4
453,sub-11,1,3,vision,4,0.725,82.22265625,2.719815102,35,8220.082682,8255.707334,8257.208949,2,8259.211092,2,8261.2133,5,8266.202064,8268.921879,4
454,sub-11,1,4,vision,5,0.95,98.07552083,2.986760518,35,8220.082682,8272.942854,8274.4446,2.5,8276.94728,2,8278.949483,6,8284.939408,8287.926169,3
455,sub-11,1,5,vision,3,0.5,15.04882813,4.505008909,35,8220.082682,8290.946059,8292.44783,2.5,8294.950588,2,8296.952705,6,8302.942621,8307.44763,3
456,sub-11,1,6,vision,3,0.5,17.25260417,1.818819394,95,8220.082682,8310.467711,8311.96936,3.5,8315.473159,2,8317.475437,5,8322.464134,8324.282954,2
457,sub-11,1,7,vision,5,0.95,99.36979167,2.986791658,5,8220.082682,8326.318526,8327.820074,2.5,8330.306149,2,8332.308373,5,8337.297159,8340.28395,3
458,sub-11,1,8,vision,5,0.95,98.86523438,3.303756588,35,8220.082682,8343.303922,8344.805586,2.5,8347.308354,2,8349.31047,6,8355.30039,8358.604147,2
459,sub-11,1,9,vision,1,0.05,2.669921875,4.405018955,65,8220.082682,8360.639633,8362.141383,3.5,8365.628479,2,8367.630641,5,8372.619447,8377.024466,4
460,sub-11,1,10,vision,2,0.275,13.97200521,2.00225721,95,8220.082682,8381.045563,8382.547137,3.5,8386.050982,2,8388.053207,6,8394.043198,8396.045455,5
461,sub-11,1,11,vision,2,0.275,16.86588542,4.805305607,35,8220.082682,8401.067643,8402.569317,2,8404.571529,2,8406.573757,5,8411.562484,8416.367789,3
462,sub-11,1,12,vision,1,0.05,2.66796875,2.719790845,5,8220.082682,8419.38784,8420.889433,2.5,8423.392224,2,8425.394494,5,8430.383208,8433.102998,3
463,sub-11,1,13,vision,3,0.5,38.57747396,2.235871319,35,8220.082682,8436.12302,8437.624668,3.5,8441.128454,2,8443.130657,6,8449.120532,8451.356403,2
464,sub-11,1,14,vision,4,0.725,58.86328125,4.388318269,95,8220.082682,8453.391963,8454.893625,2.5,8457.379676,2,8459.381922,5,8464.370687,8468.759005,5
465,sub-11,1,15,vision,1,0.05,4.195963542,2.686461258,5,8220.082682,8473.781184,8475.282866,2,8477.285002,2,8479.287279,5,8484.275991,8486.962453,2
466,sub-11,1,16,vision,5,0.95,100,1.318252694,65,8220.082682,8488.998119,8490.499655,3,8493.486257,2,8495.488499,6,8501.478317,8502.796569,3
467,sub-11,1,17,vision,1,0.05,7.130859375,2.903316223,65,8220.082682,8505.816447,8507.318132,3.5,8510.82201,2,8512.824196,5,8517.81301,8520.716327,4
468,sub-11,1,18,vision,2,0.275,18.03450521,2.336052985,5,8220.082682,8524.737456,8526.239101,2,8528.241236,2,8530.243502,5,8535.232208,8537.568261,3
469,sub-11,1,19,vision,3,0.5,46.35742188,4.354935892,5,8220.082682,8540.588259,8542.089919,2,8544.092043,2,8546.094344,5,8551.083032,8555.437968,3
470,sub-11,1,20,vision,4,0.725,69.48567708,3.337146711,35,8220.082682,8558.45795,8559.959622,2,8561.961753,2,8563.964041,6,8569.953857,8573.291004,4
471,sub-11,1,21,vision,4,0.725,59.78580729,3.370490189,65,8220.082682,8577.311989,8578.813756,3,8581.817075,2,8583.819191,5,8588.808014,8592.178504,4
472,sub-11,1,22,vision,3,0.5,47.10351563,2.519504805,5,8220.082682,8596.199575,8597.701264,3.5,8601.205052,2,8603.207338,6,8609.197144,8611.716649,5
473,sub-11,1,23,vision,5,0.95,100,2.452752255,35,8220.082682,8616.738921,8618.240584,2.5,8620.743288,2,8622.745558,6,8628.735377,8631.188129,2
474,sub-11,1,24,vision,2,0.275,17.29557292,2.703106488,95,8220.082682,8633.223706,8634.725448,2.5,8637.211444,2,8639.213692,5,8644.202445,8646.905552,4
475,sub-11,1,25,vision,1,0.05,1.745442708,2.386084891,35,8220.082682,8650.926616,8652.42831,2.5,8654.931084,2,8656.933267,5,8661.922012,8664.308097,5
476,sub-11,2,1,pain,2,46,48.94205729,9.694165167,95,8701.630562,8701.632473,8703.134243,2,8705.087273,2,8707.088604,6,8713.128478,8722.822643,2
477,sub-11,2,2,pain,4,48,52.09700521,6.423917849,35,8701.630562,8724.858149,8726.35984,2.5,8728.786195,2,8730.781422,5,8735.836844,8742.260762,4
478,sub-11,2,3,pain,1,45,13.05273438,5.272536436,5,8701.630562,8746.281725,8747.783431,2,8749.724437,2,8751.721181,6,8757.777737,8763.050274,5
479,sub-11,2,4,pain,1,45,14.59700521,2.953394444,65,8701.630562,8768.072439,8769.574184,3,8772.513034,2,8774.512995,6,8780.569545,8783.52294,3
480,sub-11,2,5,pain,2,46,20.91666667,3.38720262,95,8701.630562,8786.542906,8788.044618,3,8790.985952,2,8792.983369,5,8798.038814,8801.426017,5
481,sub-11,2,6,pain,5,49,66.55664063,1.33491583,65,8701.630562,8806.448201,8807.949883,3.5,8811.389283,2,8813.389222,6,8819.445788,8820.780704,4
482,sub-11,2,7,pain,1,45,4.6015625,2.569555077,5,8701.630562,8824.801698,8826.303385,3,8829.242872,2,8831.242241,6,8837.298881,8839.868436,5
483,sub-11,2,8,pain,5,49,58.87304688,5.239167408,65,8701.630562,8844.890526,8846.392368,3,8849.331363,2,8851.331043,5,8856.38661,8861.625777,2
484,sub-11,2,9,pain,3,47,34.25651042,1.752113699,5,8701.630562,8863.661345,8865.163009,3.5,8868.589341,2,8870.585541,5,8875.641091,8877.393205,2
485,sub-11,2,10,pain,3,47,24.24804688,3.0201427,5,8701.630562,8879.428711,8880.93031,2.5,8883.356418,2,8885.351933,6,8891.408499,8894.428641,3
486,sub-11,2,11,pain,4,48,63.57096354,2.119077306,5,8701.630562,8897.448596,8898.950207,3,8901.891774,2,8903.889058,6,8909.945605,8912.064682,3
487,sub-11,2,12,pain,3,47,36.8046875,3.504004531,95,8701.630562,8915.084613,8916.586316,3.5,8920.026526,2,8922.025731,6,8928.08228,8931.586284,2
488,sub-11,2,13,pain,5,49,77.26302083,5.723113603,35,8701.630562,8933.62187,8935.123517,3.5,8938.549211,2,8940.546141,5,8945.601618,8951.324731,2
489,sub-11,2,14,pain,2,46,15.39908854,3.00343771,5,8701.630562,8953.34359,8954.845287,2,8956.787419,2,8958.78284,5,8963.838417,8966.841855,5
490,sub-11,2,15,pain,3,47,38.37174479,3.570707986,65,8701.630562,8971.863937,8973.36571,2,8975.304207,2,8977.303304,6,8983.359966,8986.930674,4
491,sub-11,2,16,pain,5,49,76.45377604,1.935375317,95,8701.630562,8990.95177,8992.453432,3.5,8995.893666,2,8997.892772,6,9003.949408,9005.884784,5
492,sub-11,2,17,pain,2,46,48.26367188,2.86990272,65,8701.630562,9010.907092,9012.408782,3,9015.347668,2,9017.347539,6,9023.404189,9026.274092,5
493,sub-11,2,18,pain,4,48,75.82617188,3.253672046,65,8701.630562,9031.296256,9032.797864,3,9035.737355,2,9037.736724,5,9042.792223,9046.045895,4
494,sub-11,2,19,pain,4,48,62.54166667,5.088875886,95,8701.630562,9050.066886,9051.568663,3.5,9055.008909,2,9057.007926,5,9062.063527,9067.152403,5
495,sub-11,2,20,pain,3,47,27.69986979,1.9188784,35,8701.630562,9072.174609,9073.676294,2,9075.61502,2,9077.613938,6,9083.670643,9085.589522,5
496,sub-11,2,21,pain,1,45,6.216145833,1.585206761,5,8701.630562,9090.611698,9092.113354,2,9094.050988,2,9096.051059,5,9101.106597,9102.691804,4
497,sub-11,2,22,pain,4,48,49.40559896,2.069087611,95,8701.630562,9106.712797,9108.214531,2.5,9110.653955,2,9112.652717,5,9117.708172,9119.77726,2
498,sub-11,2,23,pain,1,45,3.481119792,2.870026079,65,8701.630562,9121.796016,9123.297785,2,9125.239999,2,9127.235389,6,9133.292019,9136.162045,2
499,sub-11,2,24,pain,2,46,8.239583333,3.387207481,95,8701.630562,9138.197557,9139.699261,2.5,9142.125249,2,9144.120731,5,9149.176214,9152.563421,3
500,sub-11,2,25,pain,5,49,81.16341146,1.268174279,65,8701.630562,9155.583416,9157.084951,3,9160.026564,2,9162.023765,6,9168.080449,9169.348623,5
501,sub-12,1,1,vision,4,0.725,70.20442708,6.190262014,5,10373.82803,10373.84661,10375.34835,3.5,10378.83558,2,10380.83775,5,10385.82647,10392.01674,4
502,sub-12,1,2,vision,4,0.725,62.45377604,4.63856374,35,10373.82803,10396.03788,10397.5395,3,10400.54282,2,10402.54501,6,10408.53485,10413.17342,5
503,sub-12,1,3,vision,5,0.95,91.06770833,4.938933177,5,10373.82803,10418.19562,10419.69728,2,10421.69945,2,10423.70174,6,10429.6915,10434.63043,3
504,sub-12,1,4,vision,1,0.05,15.26367188,6.65747293,65,10373.82803,10437.6504,10439.15209,3,10442.15532,2,10444.1576,5,10449.14632,10455.80379,2
505,sub-12,1,5,vision,3,0.5,23.328125,8.142456223,5,10373.82803,10457.83925,10459.34101,3.5,10462.8282,2,10464.83033,6,10470.82022,10478.96267,3
506,sub-12,1,6,vision,5,0.95,87.7578125,6.473931796,5,10373.82803,10481.98265,10483.48432,2,10485.48642,2,10487.48873,5,10492.47746,10498.95139,5
507,sub-12,1,7,vision,3,0.5,26.00716146,7.958830592,5,10373.82803,10503.97356,10505.47525,2,10507.4774,2,10509.47967,6,10515.46956,10523.42839,5
508,sub-12,1,8,vision,2,0.275,21.38085938,1.835474086,5,10373.82803,10528.4506,10529.95225,2.5,10532.45501,2,10534.45722,6,10540.44705,10542.28252,5
509,sub-12,1,9,vision,5,0.95,85.94075521,3.403813094,95,10373.82803,10547.30471,10548.80639,2.5,10551.30917,2,10553.31127,6,10559.30124,10562.70505,2
510,sub-12,1,10,vision,4,0.725,32.93815104,3.654190067,5,10373.82803,10564.74063,10566.24229,2.5,10568.72841,2,10570.7305,6,10576.72038,10580.37457,3
511,sub-12,1,11,vision,2,0.275,20.50455729,5.205879373,95,10373.82803,10583.39452,10584.8962,2.5,10587.39896,2,10589.40109,5,10594.38988,10599.59576,2
512,sub-12,1,12,vision,1,0.05,17.96223958,4.621852635,95,10373.82803,10601.63133,10603.13291,3.5,10606.62018,2,10608.62239,6,10614.6122,10619.23405,4
513,sub-12,1,13,vision,5,0.95,87.85221354,4.855405898,5,10373.82803,10623.25517,10624.75684,3.5,10628.26076,2,10630.26291,6,10636.25282,10641.10822,5
514,sub-12,1,14,vision,4,0.725,47.36914063,4.388318731,35,10373.82803,10646.13042,10647.63208,2,10649.63422,2,10651.63649,5,10656.6252,10661.01352,3
515,sub-12,1,15,vision,5,0.95,87.48307292,3.503975896,5,10373.82803,10664.03348,10665.53516,3,10668.53841,2,10670.5406,5,10675.52939,10679.03337,4
516,sub-12,1,16,vision,1,0.05,11.83854167,2.769869999,65,10373.82803,10683.0544,10684.55616,2.5,10687.05885,2,10689.06104,5,10694.04982,10696.81969,4
517,sub-12,1,17,vision,1,0.05,7.901041667,5.255895119,5,10373.82803,10700.84076,10702.34244,3,10705.34568,2,10707.34787,6,10713.33782,10718.59372,3
518,sub-12,1,18,vision,2,0.275,24.94335938,4.121327829,95,10373.82803,10721.61358,10723.11541,2.5,10725.61815,2,10727.62025,6,10733.61013,10737.73145,5
519,sub-12,1,19,vision,3,0.5,47.08789063,2.686437806,95,10373.82803,10742.7536,10744.25534,2,10746.25745,2,10748.25965,5,10753.24847,10755.93491,3
520,sub-12,1,20,vision,2,0.275,26.17708333,2.603014411,65,10373.82803,10758.95487,10760.45647,2.5,10762.95924,2,10764.96152,6,10770.95133,10773.55435,3
521,sub-12,1,21,vision,1,0.05,6.151041667,3.036785805,5,10373.82803,10776.57433,10778.07599,3.5,10781.57986,2,10783.58205,5,10788.57081,10791.6076,4
522,sub-12,1,22,vision,4,0.725,64.61067708,5.122286849,35,10373.82803,10795.62867,10797.13036,3,10800.13366,2,10802.13587,6,10808.12573,10813.24802,2
523,sub-12,1,23,vision,3,0.5,69.63151042,4.805437664,95,10373.82803,10815.2836,10816.78536,2,10818.77089,2,10820.7731,5,10825.7618,10830.56724,5
524,sub-12,1,24,vision,3,0.5,50.50716146,6.390434732,5,10373.82803,10835.58942,10837.0911,3,10840.09442,2,10842.09662,6,10848.08651,10854.47695,4
525,sub-12,1,25,vision,2,0.275,25.65299479,4.855484021,95,10373.82803,10858.49805,10859.9997,2.5,10862.50239,2,10864.50459,5,10869.49339,10874.34887,4
526,sub-12,2,1,pain,5,49,70.16992188,13.14801316,65,10953.18375,10953.18582,10954.68742,3,10957.62975,2,10959.62617,5,10964.68174,10977.82975,5
527,sub-12,2,2,pain,4,48,59.49414063,8.8431909,95,10953.18375,10982.8519,10984.35357,2,10986.29203,2,10988.29124,5,10993.34673,11002.18993,2
528,sub-12,2,3,pain,2,46,19.52148438,5.022376062,65,10953.18375,11004.20869,11005.71043,3,11008.65289,2,11010.64926,5,11015.70465,11020.72703,2
529,sub-12,2,4,pain,2,46,23.53580729,5.706419624,35,10953.18375,11022.74591,11024.24749,2.5,11026.68987,2,11028.68578,6,11034.74237,11040.44879,2
530,sub-12,2,5,pain,5,49,52.73893229,4.488415101,65,10953.18375,11042.46766,11043.96934,3.5,11047.41063,2,11049.40868,5,11054.46414,11058.95255,5
531,sub-12,2,6,pain,3,47,26.52278646,5.789695504,95,10953.18375,11063.97472,11065.4764,3.5,11068.91446,2,11070.91574,6,11076.97237,11082.76206,5
532,sub-12,2,7,pain,2,46,19.21289063,2.969994109,35,10953.18375,11087.78431,11089.286,2.5,11091.72496,2,11093.72424,5,11098.77975,11101.74975,4
533,sub-12,2,8,pain,2,46,19.15234375,5.456137012,65,10953.18375,11105.77087,11107.27252,3,11110.21336,2,11112.21126,5,11117.26675,11122.72289,3
534,sub-12,2,9,pain,5,49,36.28320313,5.889931155,95,10953.18375,11125.74278,11127.24457,3,11130.18577,2,11132.18324,5,11137.2388,11143.12873,4
535,sub-12,2,10,pain,5,49,56.65039063,9.276923478,65,10953.18375,11147.14981,11148.65141,2,11150.59175,2,11152.58908,6,11158.64572,11167.92264,4
536,sub-12,2,11,pain,1,45,6.752604167,2.586320674,5,10953.18375,11171.94383,11173.44544,3.5,11176.8855,2,11178.88485,5,11183.9403,11186.52662,3
537,sub-12,2,12,pain,3,47,15.05924479,4.63857022,95,10953.18375,11189.54662,11191.04827,2.5,11193.48906,2,11195.48642,6,11201.54305,11206.18162,3
538,sub-12,2,13,pain,4,48,11.76106771,10.24474668,35,10953.18375,11209.20162,11210.70321,2,11212.6447,2,11214.64085,5,11219.69644,11229.94118,2
539,sub-12,2,14,pain,2,46,8.422526042,1.568504223,35,10953.18375,11231.97668,11233.47841,3,11236.405,2,11238.40039,6,11244.45707,11246.02558,4
540,sub-12,2,15,pain,3,47,8.919921875,2.686348265,65,10953.18375,11250.41369,11251.91542,2,11253.84789,2,11255.85302,5,11260.90862,11263.59497,2
541,sub-12,2,16,pain,5,49,38.4375,3.303776351,65,10953.18375,11265.63047,11267.13213,3.5,11270.55847,2,11272.55483,5,11277.6103,11280.91408,3
542,sub-12,2,17,pain,4,48,40.59960938,5.35604892,95,10953.18375,11283.93406,11285.43574,2.5,11287.87723,2,11289.87394,6,11295.93051,11301.28656,4
543,sub-12,2,18,pain,1,45,9.921223958,2.953393696,35,10953.18375,11305.30766,11306.80923,3,11309.74896,2,11311.74809,5,11316.80355,11319.75694,3
544,sub-12,2,19,pain,1,45,12.5,2.385959058,35,10953.18375,11322.77691,11324.27859,2,11326.21879,2,11328.21627,6,11334.27285,11336.65881,2
545,sub-12,2,20,pain,1,45,21.16080729,1.284849588,35,10953.18375,11338.67783,11340.17946,3.5,11343.62167,2,11345.61868,6,11351.67538,11352.96023,4
546,sub-12,2,21,pain,4,48,40.67708333,1.601908205,35,10953.18375,11356.98122,11358.48298,3,11361.42265,2,11363.42178,5,11368.47722,11370.07913,5
547,sub-12,2,22,pain,4,48,47.93033854,4.488304138,65,10953.18375,11375.10119,11376.60299,3.5,11380.04236,2,11382.04232,5,11387.09776,11391.58606,3
548,sub-12,2,23,pain,1,45,12.75065104,2.50291352,65,10953.18375,11394.60615,11396.10783,3.5,11399.54951,2,11401.54718,6,11407.60372,11410.10663,5
549,sub-12,2,24,pain,3,47,48.19856771,3.58722233,65,10953.18375,11415.12872,11416.63039,2,11418.56802,2,11420.56813,6,11426.62479,11430.21201,2
550,sub-12,2,25,pain,3,47,37.76627604,4.52180732,35,10953.18375,11432.23105,11433.73267,2,11435.6749,2,11437.67032,6,11443.7269,11448.24871,2
551,sub-13,1,1,vision,2,0.275,44.39453125,4.555086889,5,15269.53541,15269.58749,15271.08904,2.5,15273.54183,2,15275.54401,6,15281.53381,15286.0889,2
552,sub-13,1,2,vision,2,0.275,49.74609375,2.335977554,95,15269.53541,15288.12459,15289.62624,3.5,15293.11335,2,15295.11564,5,15300.10443,15302.44041,2
553,sub-13,1,3,vision,1,0.05,22.68945313,3.570650994,35,15269.53541,15304.47596,15305.97762,3.5,15309.46469,2,15311.46702,6,15317.4569,15321.02755,2
554,sub-13,1,4,vision,1,0.05,19.89648438,2.452811087,5,15269.53541,15323.04633,15324.54811,2.5,15327.05077,2,15329.05314,6,15335.04288,15337.4957,2
555,sub-13,1,5,vision,5,0.95,99.98697917,1.701991321,35,15269.53541,15339.5313,15341.03296,2.5,15343.51904,2,15345.52116,6,15351.51107,15353.21306,5
556,sub-13,1,6,vision,3,0.5,73.55533854,2.202559909,35,15269.53541,15358.23524,15359.73693,3,15362.74025,2,15364.74244,5,15369.73116,15371.93372,4
557,sub-13,1,7,vision,3,0.5,61.86914063,2.202566891,5,15269.53541,15375.95483,15377.45648,3.5,15380.96034,2,15382.96251,5,15387.95127,15390.15384,3
558,sub-13,1,8,vision,1,0.05,16.38606771,1.685326987,65,15269.53541,15393.1738,15394.6754,3,15397.67871,2,15399.6809,6,15405.67081,15407.35614,5
559,sub-13,1,9,vision,5,0.95,98.49739583,1.518474421,5,15269.53541,15412.37824,15413.87999,2.5,15416.38268,2,15418.38495,5,15423.37367,15424.89215,3
560,sub-13,1,10,vision,5,0.95,97.62434896,2.002318869,65,15269.53541,15427.91211,15429.4138,2.5,15431.91649,2,15433.91877,6,15439.90859,15441.91091,5
561,sub-13,1,11,vision,4,0.725,56.88411458,1.968973425,35,15269.53541,15446.93305,15448.43479,3,15451.4213,2,15453.42359,5,15458.42901,15460.39798,5
562,sub-13,1,12,vision,5,0.95,77.82226563,1.318189168,5,15269.53541,15465.4201,15466.92177,2,15468.92398,2,15470.92628,5,15475.91502,15477.23321,5
563,sub-13,1,13,vision,3,0.5,48.42122396,1.418268176,95,15269.53541,15482.25532,15483.75718,3.5,15487.26089,2,15489.26308,6,15495.25307,15496.67133,3
564,sub-13,1,14,vision,4,0.725,66.03255208,1.668651869,95,15269.53541,15499.69133,15501.19299,2,15503.1952,2,15505.19733,5,15510.1861,15511.85475,3
565,sub-13,1,15,vision,2,0.275,40.40690104,2.219176753,65,15269.53541,15514.87474,15516.3764,2.5,15518.87917,2,15520.88137,6,15526.87118,15529.09036,2
566,sub-13,1,16,vision,1,0.05,14.87630208,2.953380422,5,15269.53541,15531.12602,15532.62767,3,15535.6143,2,15537.6165,6,15543.60633,15546.55971,2
567,sub-13,1,17,vision,2,0.275,21.31510417,1.4517304,95,15269.53541,15548.57849,15550.08026,3,15553.08357,2,15555.0857,6,15561.07559,15562.52732,3
568,sub-13,1,18,vision,2,0.275,51.17317708,1.184789048,5,15269.53541,15565.54729,15567.04898,3,15570.05229,2,15572.05449,6,15578.0443,15579.22909,2
569,sub-13,1,19,vision,4,0.725,78.09505208,1.918859838,35,15269.53541,15581.26459,15582.76623,2.5,15585.2524,2,15587.25461,5,15592.2433,15594.16216,5
570,sub-13,1,20,vision,5,0.95,98.73242188,1.501789441,35,15269.53541,15599.18444,15600.68608,2,15602.68823,2,15604.69052,5,15609.67921,15611.181,4
571,sub-13,1,21,vision,4,0.725,79.75585938,1.651945974,95,15269.53541,15615.20208,15616.70377,2.5,15619.20653,2,15621.20873,5,15626.19744,15627.84938,3
572,sub-13,1,22,vision,4,0.725,67.94010417,1.435026545,65,15269.53541,15630.86939,15632.37104,3.5,15635.87492,2,15637.87711,5,15642.86584,15644.30087,5
573,sub-13,1,23,vision,3,0.5,56.73177083,1.518378144,35,15269.53541,15649.32307,15650.82473,2.5,15653.32751,2,15655.3297,6,15661.3195,15662.83788,5
574,sub-13,1,24,vision,1,0.05,2.522786458,1.868750449,95,15269.53541,15667.8601,15669.36185,3,15672.36518,2,15674.36739,5,15679.35608,15681.22483,4
575,sub-13,1,25,vision,3,0.5,54.51822917,1.368316074,95,15269.53541,15685.24602,15686.74761,2,15688.74991,2,15690.75211,5,15695.74083,15697.10915,2
576,sub-13,2,1,pain,4,48,90.27083333,2.386091791,5,15707.76887,15707.77079,15709.27255,2,15711.23453,2,15713.2436,5,15718.26568,15720.65177,3
577,sub-13,2,2,pain,5,49,79.77083333,2.252693555,5,15707.76887,15723.67175,15725.17343,2.5,15727.61329,2,15729.61157,6,15735.6682,15737.9209,2
578,sub-13,2,3,pain,3,47,59.94986979,2.102464626,95,15707.76887,15739.9564,15741.45798,3,15744.3841,2,15746.38013,6,15752.43671,15754.53917,3
579,sub-13,2,4,pain,4,48,82.13151042,2.686426986,5,15707.76887,15757.55904,15759.06082,3.5,15762.50237,2,15764.50017,6,15770.55671,15773.24313,4
580,sub-13,2,5,pain,3,47,37.89388021,2.152481775,65,15707.76887,15777.26421,15778.76589,2.5,15781.20598,2,15783.20411,6,15789.26066,15791.41314,4
581,sub-13,2,6,pain,3,47,67.4765625,1.201452451,65,15707.76887,15795.43425,15796.93593,2,15798.8764,2,15800.87358,5,15805.92905,15807.13051,4
582,sub-13,2,7,pain,1,45,39.20963542,1.518387651,95,15707.76887,15811.15159,15812.65326,2,15814.59334,2,15816.59095,5,15821.6464,15823.16479,5
583,sub-13,2,8,pain,4,48,71.36783854,1.551809932,35,15707.76887,15828.18697,15829.68871,3.5,15833.12797,2,15835.12807,6,15841.18465,15842.73646,5
584,sub-13,2,9,pain,1,45,23.78450521,1.935645416,5,15707.76887,15847.75858,15849.26032,3,15852.19974,2,15854.19911,6,15860.25569,15862.19134,3
585,sub-13,2,10,pain,1,45,31.58398438,1.50163223,5,15707.76887,15865.21124,15866.71291,3.5,15870.15319,2,15872.15224,6,15878.20888,15879.71051,5
586,sub-13,2,11,pain,2,46,61.35677083,1.468331665,65,15707.76887,15884.73269,15886.23445,2.5,15888.67365,2,15890.6726,6,15896.72931,15898.19765,4
587,sub-13,2,12,pain,4,48,74.15299479,1.318066881,65,15707.76887,15902.21874,15903.72041,3.5,15907.16051,2,15909.15974,6,15915.21637,15916.53444,5
588,sub-13,2,13,pain,1,45,12.11783854,2.335926905,95,15707.76887,15921.55674,15923.05841,2.5,15925.49735,2,15927.49664,5,15932.55218,15934.8881,2
589,sub-13,2,14,pain,4,48,81.50130208,1.517485913,95,15707.76887,15936.90702,15938.40868,2,15940.35073,2,15942.34632,5,15947.40276,15948.92025,5
590,sub-13,2,15,pain,2,46,20.390625,1.218022016,65,15707.76887,15953.94247,15955.44406,2,15957.38266,2,15959.38182,5,15964.43727,15965.65529,4
591,sub-13,2,16,pain,2,46,29.76888021,1.051281322,65,15707.76887,15969.67649,15971.17817,3,15974.11779,2,15976.11694,5,15981.1724,15982.22368,3
592,sub-13,2,17,pain,3,47,65.23111979,1.451740482,65,15707.76887,15985.24358,15986.74533,2,15988.68626,2,15990.68293,5,15995.73846,15997.1902,4
593,sub-13,2,18,pain,5,49,84.04817708,2.119015003,35,15707.76887,16001.21119,16002.71287,2,16004.6539,2,16006.6506,6,16012.70719,16014.82621,4
594,sub-13,2,19,pain,1,45,28.11263021,1.234839345,35,15707.76887,16018.84731,16020.34899,3.5,16023.78923,2,16025.78842,6,16031.84496,16033.0798,4
595,sub-13,2,20,pain,3,47,65.41210938,1.518466276,65,15707.76887,16037.10089,16038.60255,3,16041.54344,2,16043.54133,5,16048.59678,16050.11525,3
596,sub-13,2,21,pain,5,49,83.64973958,1.168099293,35,15707.76887,16053.13529,16054.63682,3.5,16058.07717,2,16060.07616,5,16065.13169,16066.29979,3
597,sub-13,2,22,pain,2,46,5,1.718696999,5,15707.76887,16069.31974,16070.82143,2,16072.76334,2,16074.75899,6,16080.81566,16082.53435,2
598,sub-13,2,23,pain,2,46,73.9765625,1.501787341,95,15707.76887,16084.55323,16086.0549,3.5,16089.49711,2,16091.49424,5,16096.54969,16098.05148,3
599,sub-13,2,24,pain,5,49,84.64192708,1.752048019,35,15707.76887,16101.07144,16102.57314,3,16105.51438,2,16107.51192,5,16112.56737,16114.31942,2
600,sub-13,2,25,pain,5,49,84.48502604,2.03569781,95,15707.76887,16116.3549,16117.85666,2,16119.78273,2,16121.77762,6,16127.83419,16129.86989,4
601,sub-14,1,1,vision,3,0.5,46.35872396,10.76191257,65,5602.876578,5602.913111,5604.414596,3.5,5607.885189,2,5609.887347,6,5615.877252,5626.639164,5
602,sub-14,1,2,vision,4,0.725,53.73632813,3.921091805,5,5602.876578,5631.661478,5633.163069,2.5,5635.665722,2,5637.667998,6,5643.657839,5647.578931,3
603,sub-14,1,3,vision,2,0.275,31.29622396,2.786393871,65,5602.876578,5650.598951,5652.100614,2.5,5654.603399,2,5656.605497,6,5662.595468,5665.381862,4
604,sub-14,1,4,vision,1,0.05,10.13802083,3.32037185,35,5602.876578,5669.402922,5670.904692,3.5,5674.408534,2,5676.410654,5,5681.399492,5684.719864,2
605,sub-14,1,5,vision,2,0.275,29.11653646,1.752074078,65,5602.876578,5686.738819,5688.240487,3,5691.243819,2,5693.245894,5,5698.234709,5699.986783,3
606,sub-14,1,6,vision,5,0.95,90.15039063,3.003384368,95,5602.876578,5703.006668,5704.508319,2.5,5707.01122,2,5709.013372,5,5714.002106,5717.00549,5
607,sub-14,1,7,vision,3,0.5,34.58463542,1.685239282,65,5602.876578,5722.027648,5723.52942,3.5,5727.016489,2,5729.018814,6,5735.025395,5736.710634,3
608,sub-14,1,8,vision,3,0.5,27.23893229,2.502886556,5,5602.876578,5739.730565,5741.232211,2.5,5743.734977,2,5745.737256,5,5750.725971,5753.228858,3
609,sub-14,1,9,vision,4,0.725,60.55533854,2.285890714,35,5602.876578,5756.248769,5757.750501,2.5,5760.253272,2,5762.25545,5,5767.244183,5769.530074,4
610,sub-14,1,10,vision,5,0.95,100,0.884341713,65,5602.876578,5773.551277,5775.052927,3,5778.05626,2,5780.058342,5,5785.047148,5785.93149,3
611,sub-14,1,11,vision,4,0.725,28.91145833,3.987849619,5,5602.876578,5788.9516,5790.453255,3.5,5793.957122,2,5795.959211,5,5800.948046,5804.935895,5
612,sub-14,1,12,vision,2,0.275,13.01627604,2.703113429,95,5602.876578,5809.958078,5811.459764,3.5,5814.946835,2,5816.94915,6,5822.955645,5825.658759,5
613,sub-14,1,13,vision,4,0.725,48.70833333,1.385005694,35,5602.876578,5830.68087,5832.182511,2,5834.184726,2,5836.186944,5,5841.175753,5842.560759,5
614,sub-14,1,14,vision,3,0.5,45.34309896,2.886539873,95,5602.876578,5847.582814,5849.084605,3,5852.087891,2,5854.090012,5,5859.078862,5861.965402,2
615,sub-14,1,15,vision,3,0.5,38.34049479,4.988963655,95,5602.876578,5864.001066,5865.502727,3,5868.489209,2,5870.491566,6,5876.481369,5881.470333,4
616,sub-14,1,16,vision,1,0.05,6.607421875,1.384978643,5,5602.876578,5885.491345,5886.993104,2,5888.995236,2,5890.99749,5,5895.986203,5897.371182,2
617,sub-14,1,17,vision,2,0.275,20.83072917,3.720776587,5,5602.876578,5899.406708,5900.908333,3.5,5904.39563,2,5906.39783,5,5911.386538,5915.107314,3
618,sub-14,1,18,vision,1,0.05,1.882161458,4.004544309,35,5602.876578,5918.144015,5919.645783,3,5922.632416,2,5924.63451,5,5929.623342,5933.627887,5
619,sub-14,1,19,vision,5,0.95,97.89192708,2.419395685,95,5602.876578,5938.650087,5940.151734,2.5,5942.654514,2,5944.656749,5,5949.645391,5952.064787,4
620,sub-14,1,20,vision,1,0.05,8.538411458,2.402770604,35,5602.876578,5956.085995,5957.587658,2,5959.589854,2,5961.591947,5,5966.580764,5968.983534,4
621,sub-14,1,21,vision,5,0.95,97.04947917,2.035702516,5,5602.876578,5973.004556,5974.506318,2.5,5977.009074,2,5979.011275,5,5983.999993,5986.035696,2
622,sub-14,1,22,vision,2,0.275,16.97721354,1.818810873,95,5602.876578,5988.071196,5989.572817,2,5991.558457,2,5993.560675,6,5999.550479,6001.36929,4
623,sub-14,1,23,vision,4,0.725,64.24414063,4.922134766,95,5602.876578,6005.390381,6006.892034,2.5,6009.394688,2,6011.396893,6,6017.38691,6022.309045,3
624,sub-14,1,24,vision,1,0.05,3.274088542,3.87094908,35,5602.876578,6025.329018,6026.830611,3.5,6030.334573,2,6032.336661,5,6037.325486,6041.196435,3
625,sub-14,1,25,vision,5,0.95,95.64453125,2.202491202,5,5602.876578,6044.216437,6045.718218,3,6048.721528,2,6050.723612,6,6056.71354,6058.916032,5
626,sub-14,2,1,pain,4,48,62.86328125,7.741995169,65,6074.748121,6074.750087,6076.251897,2,6078.204964,2,6080.206173,5,6085.245025,6092.98702,5
627,sub-14,2,2,pain,2,46,9.656901042,2.369399856,5,6074.748121,6098.009212,6099.510878,2.5,6101.949867,2,6103.949117,6,6110.005679,6112.375079,5
628,sub-14,2,3,pain,1,45,2.513671875,5.956711327,95,6074.748121,6117.397299,6118.898944,3.5,6122.33691,2,6124.338262,5,6129.393721,6135.350432,2
629,sub-14,2,4,pain,4,48,14.37044271,4.204730255,5,6074.748121,6137.386015,6138.887674,2,6140.813138,2,6142.808625,6,6148.865259,6153.069989,2
630,sub-14,2,5,pain,3,47,20.37109375,3.136877496,35,6074.748121,6155.105555,6156.607116,2.5,6159.031458,2,6161.028753,6,6167.08533,6170.222207,4
631,sub-14,2,6,pain,3,47,32.17513021,1.685337261,35,6074.748121,6174.243303,6175.744914,3,6178.684485,2,6180.683687,6,6186.740319,6188.425656,4
632,sub-14,2,7,pain,4,48,37.14778646,2.08569,65,6074.748121,6192.44674,6193.94838,2.5,6196.387017,2,6198.386636,5,6203.442087,6205.527777,2
633,sub-14,2,8,pain,1,45,18.21289063,2.536208898,35,6074.748121,6207.563438,6209.065084,2,6210.990436,2,6212.986074,5,6218.041591,6220.5778,5
634,sub-14,2,9,pain,5,49,50.40299479,6.540445617,35,6074.748121,6225.599987,6227.101532,3.5,6230.541219,2,6232.54087,6,6238.597646,6245.138092,4
635,sub-14,2,10,pain,2,46,13.80729167,2.369294484,65,6074.748121,6249.159308,6250.660976,3.5,6254.100866,2,6256.10031,6,6262.156868,6264.526162,2
636,sub-14,2,11,pain,5,49,65,2.51966615,65,6074.748121,6266.561744,6268.063393,3,6270.989068,2,6272.985607,6,6279.042157,6281.561823,4
637,sub-14,2,12,pain,3,47,50.55924479,2.335952123,65,6074.748121,6285.582804,6287.084456,2,6289.024597,2,6291.02213,6,6297.078716,6299.414668,3
638,sub-14,2,13,pain,4,48,50.31640625,6.073404362,35,6074.748121,6302.434735,6303.936336,2,6305.876756,2,6307.874095,6,6313.930663,6320.004067,2
639,sub-14,2,14,pain,5,49,59.00065104,4.071295487,95,6074.748121,6322.039645,6323.541384,2,6325.466761,2,6327.462351,6,6333.518918,6337.590213,5
640,sub-14,2,15,pain,4,48,40.18619792,4.021215118,5,6074.748121,6342.612406,6344.114083,3,6347.053404,2,6349.052856,6,6355.109424,6359.130639,2
641,sub-14,2,16,pain,2,46,10.51041667,4.104505776,5,6074.748121,6361.149505,6362.6511,3.5,6366.092466,2,6368.090596,6,6374.147244,6378.25175,4
642,sub-14,2,17,pain,1,45,28.14908854,2.052338848,35,6074.748121,6382.272747,6383.774512,2,6385.714401,2,6387.712037,5,6392.767676,6394.820014,2
643,sub-14,2,18,pain,5,49,63.80533854,4.238026733,65,6074.748121,6396.838892,6398.340567,3,6401.282304,2,6403.279332,5,6408.334801,6412.572827,5
644,sub-14,2,19,pain,1,45,4.847005208,3.136964518,5,6074.748121,6417.595031,6419.096681,2.5,6421.533726,2,6423.534998,6,6429.591581,6432.728546,4
645,sub-14,2,20,pain,2,46,8.436848958,3.954371832,35,6074.748121,6436.74958,6438.251309,2,6440.192184,2,6442.188944,6,6448.2455,6452.199872,3
646,sub-14,2,21,pain,5,49,72.27083333,2.252599956,65,6074.748121,6455.219955,6456.721544,3,6459.662826,2,6461.660397,5,6466.715861,6468.968461,2
647,sub-14,2,22,pain,3,47,24.69661458,5.756462283,95,6074.748121,6471.003985,6472.50575,2.5,6474.930373,2,6476.927154,6,6482.983837,6488.740299,3
648,sub-14,2,23,pain,3,47,28.40690104,2.519493282,65,6074.748121,6491.760184,6493.261838,3,6496.203153,2,6498.200757,5,6503.256198,6505.775691,5
649,sub-14,2,24,pain,2,46,29.63541667,3.203618843,95,6074.748121,6510.79796,6512.299624,3.5,6515.737716,2,6517.738846,5,6522.794458,6525.998077,3
650,sub-14,2,25,pain,1,45,9.560546875,3.186974182,95,6074.748121,6529.018085,6530.519644,3,6533.460403,2,6535.45848,6,6541.515067,6544.702041,3
651,sub-15,1,1,vision,2,0.275,18.84309896,1.001240316,35,8921.842534,8921.861231,8923.362903,3,8926.349504,2,8928.35172,5,8933.340409,8934.34165,5
652,sub-15,1,2,vision,4,0.725,33.67903646,1.520488066,65,8921.842534,8939.363829,8940.865511,2,8942.867731,2,8944.869931,5,8949.858635,8951.379123,2
653,sub-15,1,3,vision,3,0.5,32.59244792,1.351633942,65,8921.842534,8953.412604,8954.914408,3.5,8958.401415,2,8960.403734,5,8965.392431,8966.744065,3
654,sub-15,1,4,vision,5,0.95,92.35416667,2.185718547,35,8921.842534,8969.764049,8971.26572,3.5,8974.769527,2,8976.771795,5,8981.760522,8983.946241,3
655,sub-15,1,5,vision,4,0.725,74.609375,1.852156109,65,8921.842534,8986.966378,8988.46803,3.5,8991.971899,2,8993.974012,6,8999.963935,9001.816091,3
656,sub-15,1,6,vision,4,0.725,53.86458333,1.802111502,35,8921.842534,9004.83608,9006.33774,3.5,9009.84162,2,9011.843831,6,9017.83364,9019.635752,3
657,sub-15,1,7,vision,1,0.05,5.048177083,1.251503151,5,8921.842534,9022.655737,9024.157404,2.5,9026.660235,2,9028.662372,5,9033.651089,9034.902592,2
658,sub-15,1,8,vision,5,0.95,97.42122396,1.284866942,65,8921.842534,9036.938097,9038.439916,2,9040.425353,2,9042.427566,6,9048.417373,9049.70224,5
659,sub-15,1,9,vision,2,0.275,70.39973958,1.985631876,5,8921.842534,9054.724433,9056.226119,2,9058.228328,2,9060.230535,5,9065.21926,9067.204891,3
660,sub-15,1,10,vision,5,0.95,93.51041667,1.968981341,65,8921.842534,9070.224788,9071.726553,3.5,9075.230344,2,9077.232611,5,9082.221333,9084.190314,2
661,sub-15,1,11,vision,4,0.725,62.69205729,0.951191441,35,8921.842534,9086.225772,9087.727555,3,9090.714173,2,9092.7163,6,9098.706176,9099.657368,2
662,sub-15,1,12,vision,3,0.5,34.48567708,1.968864195,35,8921.842534,9101.692869,9103.19458,2.5,9105.680604,2,9107.68289,5,9112.671591,9114.640455,5
663,sub-15,1,13,vision,3,0.5,48.75455729,5.072303997,95,8921.842534,9119.662776,9121.164467,3.5,9124.668219,2,9126.670425,5,9131.65927,9136.731574,2
664,sub-15,1,14,vision,5,0.95,95,1.084635992,95,8921.842534,9138.767104,9140.268844,3.5,9143.75602,2,9145.75822,6,9151.748061,9152.832697,3
665,sub-15,1,15,vision,3,0.5,31.46028646,2.352740018,95,8921.842534,9155.85268,9157.354363,2,9159.356492,2,9161.358772,6,9167.34857,9169.70131,3
666,sub-15,1,16,vision,1,0.05,62.39973958,0.600803365,65,8921.842534,9172.721281,9174.222962,2.5,9176.725726,2,9178.727855,5,9183.716631,9184.317434,4
667,sub-15,1,17,vision,3,0.5,37.61653646,1.101334597,5,8921.842534,9188.338544,9189.840058,2,9191.842417,2,9193.844611,6,9199.834429,9200.935764,4
668,sub-15,1,18,vision,4,0.725,32.82226563,1.034600194,5,8921.842534,9204.956842,9206.458542,3.5,9209.962395,2,9211.964633,6,9217.954418,9218.989018,3
669,sub-15,1,19,vision,1,0.05,3.531901042,1.852165927,65,8921.842534,9222.009062,9223.51068,2.5,9226.01337,2,9228.015568,5,9233.00437,9234.856535,5
670,sub-15,1,20,vision,2,0.275,34.30924479,1.852165319,65,8921.842534,9239.878713,9241.380389,3,9244.383626,2,9246.385902,5,9251.374611,9253.226776,5
671,sub-15,1,21,vision,5,0.95,95.921875,1.051287043,65,8921.842534,9258.248913,9259.750661,3.5,9263.254496,2,9265.25673,5,9270.245437,9271.296724,5
672,sub-15,1,22,vision,1,0.05,12.28515625,0.934489365,5,8921.842534,9276.318923,9277.820602,3,9280.823916,2,9282.82603,5,9287.814842,9288.749332,3
673,sub-15,1,23,vision,2,0.275,15.68880208,1.935597931,5,8921.842534,9291.769337,9293.27097,2.5,9295.773643,2,9297.775939,5,9302.764648,9304.700246,5
674,sub-15,1,24,vision,1,0.05,2.889322917,1.802103794,95,8921.842534,9309.722425,9311.224108,2,9313.226238,2,9315.228526,6,9321.218353,9323.020457,5
675,sub-15,1,25,vision,2,0.275,11.95182292,1.852184739,5,8921.842534,9328.042637,9329.544332,2.5,9332.047085,2,9334.049289,6,9340.039104,9341.891289,4
676,sub-15,2,1,pain,2,46,73.71354167,2.202562019,35,9403.055982,9403.058732,9404.560418,2.5,9407.022676,2,9409.03201,5,9414.054091,9416.256653,2
677,sub-15,2,2,pain,3,47,4.451171875,3.570711371,65,9403.055982,9418.292234,9419.793902,2.5,9422.220151,2,9424.215404,6,9430.271986,9433.842698,2
