"","participant","date","block","trial_num","modality","stim_level","stim_value","rating","RT","vas_initial_value","block_onset","trial_onset","fixation_onset","anticipation_duration","stim_onset","stim_duration","stim_offset","stim_rating_delay","rating_onset","rating_offset","iti_duration"
"1","sub-01","30-Jun-2016 09:09:11",1,1,"vision",5,0.95,88.3470052083333,4.33816812300006,65,1784.892223821,1784.944582712,1786.446240185,2.5,1788.898963696,2,1790.901044598,5,1795.889950389,1800.228118512,5
"2","sub-01","30-Jun-2016 09:09:11",1,2,"vision",1,0.05,14.2805989583333,3.80427862300007,5,1784.892223821,1805.250293179,1806.751953086,2,1808.754088554,2,1810.756285797,6,1816.746276489,1820.550555112,5
"3","sub-01","30-Jun-2016 09:09:11",1,3,"vision",1,0.05,6.65755208333333,2.91997220100006,95,1784.892223821,1825.572729044,1827.074411141,2,1829.076499352,2,1831.078700704,5,1836.067550756,1838.987522957,3
"4","sub-01","30-Jun-2016 09:09:11",1,4,"vision",3,0.5,27.2408854166667,3.73736957599999,65,1784.892223821,1842.007504805,1843.509195605,3,1846.512514695,2,1848.51460949,5,1853.503534837,1857.240904413,2
"5","sub-01","30-Jun-2016 09:09:11",1,5,"vision",3,0.5,23.0670572916667,2.18575966200001,95,1784.892223821,1859.276462009,1860.778132075,2.5,1863.264215386,2,1865.266519915,6,1871.256434537,1873.442194199,2
"6","sub-01","30-Jun-2016 09:09:11",1,6,"vision",3,0.5,28.359375,1.91893533899997,35,1784.892223821,1875.477770006,1876.979466214,2,1878.964904644,2,1880.967077672,6,1886.95701744,1888.875952779,3
"7","sub-01","30-Jun-2016 09:09:11",1,7,"vision",1,0.05,7.90104166666667,3.53728151899986,35,1784.892223821,1891.895800394,1893.397568323,2,1895.399886035,2,1897.401959971,6,1903.391886731,1906.92916825,5
"8","sub-01","30-Jun-2016 09:09:11",1,8,"vision",4,0.725,44.4381510416667,8.64298225500011,5,1784.892223821,1911.951344222,1913.453028078,2.5,1915.955704489,2,1917.957998181,6,1923.947881508,1932.590863763,4
"9","sub-01","30-Jun-2016 09:09:11",1,9,"vision",4,0.725,44.4453125,1.95229224199988,5,1784.892223821,1936.611804682,1938.113571838,3,1941.116775195,2,1943.119106562,5,1948.107798038,1950.06009028,3
"10","sub-01","30-Jun-2016 09:09:11",1,10,"vision",2,0.275,15.9466145833333,1.91879290200018,35,1784.892223821,1953.080083814,1954.581713828,2.5,1957.084509615,2,1959.08657464,5,1964.075504905,1965.994297807,3
"11","sub-01","30-Jun-2016 09:09:11",1,11,"vision",5,0.95,94.3580729166667,2.2358995940001,65,1784.892223821,1969.014298018,1970.515984651,3.5,1974.019824021,2,1976.02203042,5,1981.010785128,1983.246684722,5
"12","sub-01","30-Jun-2016 09:09:11",1,12,"vision",4,0.725,59.732421875,2.26915911100014,95,1784.892223821,1988.268876479,1989.77044899,3,1992.773852176,2,1994.776053973,5,1999.764811075,2002.033970186,4
"13","sub-01","30-Jun-2016 09:09:11",1,13,"vision",2,0.275,22.29296875,3.33700410400002,95,1784.892223821,2006.055197592,2007.556848991,2,2009.558946735,2,2011.561154279,6,2017.551189774,2020.888193878,2
"14","sub-01","30-Jun-2016 09:09:11",1,14,"vision",3,0.5,16.513671875,2.03572519399995,95,1784.892223821,2022.923704842,2024.425349112,2,2026.410950173,2,2028.413204941,5,2033.401959737,2035.437684931,2
"15","sub-01","30-Jun-2016 09:09:11",1,15,"vision",5,0.95,100,1.31809065000016,5,1784.892223821,2037.823585106,2039.325241496,3.5,2042.81243107,2,2044.814602004,6,2050.821198623,2052.139289273,5
"16","sub-01","30-Jun-2016 09:09:11",1,16,"vision",4,0.725,38.2994791666667,2.06905681599983,65,1784.892223821,2057.161546349,2058.663243338,2.5,2061.165895074,2,2063.168083588,5,2068.156944373,2070.226001189,3
"17","sub-01","30-Jun-2016 09:09:11",1,17,"vision",5,0.95,84.921875,2.08554600000025,65,1784.892223821,2073.245899817,2074.747639597,2.5,2077.250418068,2,2079.252626428,5,2084.241405379,2086.326951379,2
"18","sub-01","30-Jun-2016 09:09:11",1,18,"vision",2,0.275,14.9010416666667,2.28598268799988,65,1784.892223821,2088.362551955,2089.864319965,2,2091.849819204,2,2093.852051495,5,2098.840831557,2101.126814245,2
"19","sub-01","30-Jun-2016 09:09:11",1,19,"vision",2,0.275,17.0475260416667,2.31932882199999,35,1784.892223821,2103.145609978,2104.647307138,2.5,2107.149946177,2,2109.152269442,5,2114.141039771,2116.460368593,3
"20","sub-01","30-Jun-2016 09:09:11",1,20,"vision",5,0.95,76.6959635416667,2.97000208199961,95,1784.892223821,2119.480217109,2120.981870118,2,2122.984194927,2,2124.986374596,6,2130.976287753,2133.946289835,3
"21","sub-01","30-Jun-2016 09:09:11",1,21,"vision",1,0.05,6.36783854166667,1.45167191600012,95,1784.892223821,2136.966279439,2138.467914361,3.5,2141.971871803,2,2143.974017064,5,2148.962808399,2150.414480315,5
"22","sub-01","30-Jun-2016 09:09:11",1,22,"vision",2,0.275,20.4485677083333,1.98560984099959,65,1784.892223821,2155.436633875,2156.938317194,2,2158.940538559,2,2160.94270537,5,2165.931462111,2167.917071952,4
"23","sub-01","30-Jun-2016 09:09:11",1,23,"vision",3,0.5,39.1510416666667,3.03670393599987,5,1784.892223821,2171.938176974,2173.439858066,3.5,2176.94372671,2,2178.945936007,6,2184.935832138,2187.972536074,2
"24","sub-01","30-Jun-2016 09:09:11",1,24,"vision",1,0.05,9.818359375,3.07021332500017,65,1784.892223821,2190.00805629,2191.509810351,2,2193.495294912,2,2195.497540799,5,2200.486256503,2203.556469828,3
"25","sub-01","30-Jun-2016 09:09:11",1,25,"vision",4,0.725,37.4231770833333,2.00223286999972,65,1784.892223821,2206.576302708,2208.078078582,2.5,2210.580806204,2,2212.582930173,6,2218.572950356,2220.575183226,5
"26","sub-01","30-Jun-2016 09:09:11",2,1,"pain",5,49,75.19140625,4.63837074699995,35,2256.913330315,2256.931954382,2258.433637212,3,2261.368500683,2,2263.372417235,6,2269.412378125,2274.050748872,5
"27","sub-01","30-Jun-2016 09:09:11",2,2,"pain",3,47,61.326171875,2.86987173899979,5,2256.913330315,2279.073057333,2280.57472005,2.5,2283.013826049,2,2285.012831317,6,2291.069593437,2293.939465176,2
"28","sub-01","30-Jun-2016 09:09:11",2,3,"pain",3,47,38.642578125,3.78764758800025,35,2256.913330315,2296.342074723,2297.843746287,3,2300.76949795,2,2302.765843304,5,2307.821296356,2311.608943944,5
"29","sub-01","30-Jun-2016 09:09:11",2,4,"pain",2,46,35.8639322916667,3.45389035199969,5,2256.913330315,2316.631164805,2318.132710542,2.5,2320.5698389,2,2322.571053787,6,2328.627625555,2332.081515907,3
"30","sub-01","30-Jun-2016 09:09:11",2,5,"pain",5,49,67.220703125,1.96885082000017,5,2256.913330315,2335.485297624,2336.986969269,3,2339.912722186,2,2341.909069722,6,2347.965699163,2349.934549983,4
"31","sub-01","30-Jun-2016 09:09:11",2,6,"pain",2,46,20.6197916666667,1.65174602700017,95,2256.913330315,2353.955560303,2355.457348834,2.5,2357.897279866,2,2359.895453389,6,2365.952206314,2367.603952341,2
"32","sub-01","30-Jun-2016 09:09:11",2,7,"pain",3,47,46.58203125,1.88546753799983,5,2256.913330315,2369.990005407,2371.491688899,3,2374.428790719,2,2376.430495752,6,2382.487114722,2384.37258226,4
"33","sub-01","30-Jun-2016 09:09:11",2,8,"pain",4,48,71.2252604166667,3.42049849400019,5,2256.913330315,2388.393643162,2389.895295142,3.5,2393.335550438,2,2395.334676135,6,2401.391255864,2404.811754358,2
"34","sub-01","30-Jun-2016 09:09:11",2,9,"pain",2,46,27.5091145833333,2.25259789199981,65,2256.913330315,2406.847268989,2408.349019829,3,2411.275187525,2,2413.271129904,5,2418.326561138,2420.57915903,4
"35","sub-01","30-Jun-2016 09:09:11",2,10,"pain",5,49,83.5221354166667,3.57053938599984,5,2256.913330315,2424.600254598,2426.101867428,3.5,2429.542269575,2,2431.5412755,6,2437.597916433,2441.168455819,3
"36","sub-01","30-Jun-2016 09:09:11",2,11,"pain",4,48,66.740234375,2.41934807600001,35,2256.913330315,2444.205147457,2445.706869591,3,2448.630906758,2,2450.629003161,5,2455.684458989,2458.103807065,5
"37","sub-01","30-Jun-2016 09:09:11",2,12,"pain",1,45,31.974609375,2.26916856200023,95,2256.913330315,2463.126131453,2464.627756339,3,2467.566304925,2,2469.566447014,6,2475.623227831,2477.892396393,4
"38","sub-01","30-Jun-2016 09:09:11",2,13,"pain",1,45,19.8502604166667,2.55283676900035,35,2256.913330315,2481.913484989,2483.415132619,3.5,2486.853152891,2,2488.854479076,5,2493.910027307,2496.462864076,3
"39","sub-01","30-Jun-2016 09:09:11",2,14,"pain",1,45,11.111328125,1.85206811199987,95,2256.913330315,2499.482788606,2500.984548531,3.5,2504.425285304,2,2506.423792309,6,2512.480431117,2514.332499229,5
"40","sub-01","30-Jun-2016 09:09:11",2,15,"pain",3,47,43.7545572916667,3.12024527999984,35,2256.913330315,2519.738447487,2521.24013437,2,2523.167645266,2,2525.161192466,6,2531.217785713,2534.338030993,2
"41","sub-01","30-Jun-2016 09:09:11",2,16,"pain",4,48,59.1940104166667,2.65302589600014,35,2256.913330315,2536.356883216,2537.858583308,3,2540.798467866,2,2542.79727187,6,2548.853910557,2551.506936453,4
"42","sub-01","30-Jun-2016 09:09:11",2,17,"pain",1,45,45.1842447916667,2.3026462150001,5,2256.913330315,2555.527955214,2557.029727162,3.5,2560.469959667,2,2562.46905271,6,2568.52561291,2570.828259125,5
"43","sub-01","30-Jun-2016 09:09:11",2,18,"pain",2,46,52.203125,1.91884253799981,65,2256.913330315,2575.850445738,2577.352106384,2,2579.290295082,2,2581.289828303,5,2586.345306945,2588.264149483,3
"44","sub-01","30-Jun-2016 09:09:11",2,19,"pain",1,45,27.6803385416667,1.48494535700002,95,2256.913330315,2591.317415033,2592.81918883,3.5,2596.251418815,2,2598.258426124,5,2603.314059917,2604.799005274,3
"45","sub-01","30-Jun-2016 09:09:11",2,20,"pain",4,48,79.0006510416667,2.58628340599989,35,2256.913330315,2607.819006199,2609.320644334,2.5,2611.760965775,2,2613.758858981,5,2618.814412227,2621.400695633,4
"46","sub-01","30-Jun-2016 09:09:11",2,21,"pain",2,46,58.083984375,2.38601306300006,65,2256.913330315,2625.788882893,2627.290577558,3.5,2630.729019513,2,2632.729872642,5,2637.785409853,2640.171422916,4
"47","sub-01","30-Jun-2016 09:09:11",2,22,"pain",4,48,92.6315104166667,1.50176179400023,95,2256.913330315,2644.192520316,2645.694183175,3,2648.634964772,2,2650.633014898,6,2656.68953586,2658.191297654,4
"48","sub-01","30-Jun-2016 09:09:11",2,23,"pain",3,47,65.2291666666667,1.61849028400002,95,2256.913330315,2662.212399358,2663.71395995,3,2666.653415427,2,2668.652908214,5,2673.708316408,2675.326806692,2
"49","sub-01","30-Jun-2016 09:09:11",2,24,"pain",5,49,94.77734375,2.88662007799985,65,2256.913330315,2677.362536867,2678.864183381,2.5,2681.28902198,2,2683.285647997,5,2688.341126261,2691.227746339,4
"50","sub-01","30-Jun-2016 09:09:11",2,25,"pain",5,49,96.8756510416667,2.50292547800018,5,2256.913330315,2695.24876992,2696.750502443,3.5,2700.189792809,2,2702.18974726,6,2708.246395452,2710.74932093,2
"51","sub-02","30-Jun-2016 12:09:03",1,1,"vision",1,0.05,6.04817708333333,10.4115702100007,35,12598.093116225,12598.112428143,12599.614039979,2.5,12602.100144803,2,12604.102231361,6,12610.092222729,12620.503792939,5
"52","sub-02","30-Jun-2016 12:09:03",1,2,"vision",3,0.5,36.4889322916667,7.80849251799918,65,12598.093116225,12625.893049765,12627.394677426,2,12629.380120827,2,12631.382448702,5,12636.38796478,12644.196457298,4
"53","sub-02","30-Jun-2016 12:09:03",1,3,"vision",5,0.95,99.8307291666667,4.5551372860009,95,12598.093116225,12648.217684105,12649.719346915,3.5,12653.223206368,2,12655.225323828,6,12661.215259821,12665.770397107,2
"54","sub-02","30-Jun-2016 12:09:03",1,4,"vision",4,0.725,50.302734375,3.7876044220011,35,12598.093116225,12667.789163971,12669.290900045,3,12672.294135483,2,12674.296418445,5,12679.285167306,12683.072771728,3
"55","sub-02","30-Jun-2016 12:09:03",1,5,"vision",5,0.95,84.2447916666667,3.80421496800045,5,12598.093116225,12686.092710326,12687.594447099,2.5,12690.097201417,2,12692.099423149,6,12698.089241085,12701.893456053,4
"56","sub-02","30-Jun-2016 12:09:03",1,6,"vision",5,0.95,87.0162760416667,8.62619645199993,95,12598.093116225,12705.914639511,12707.416303995,2.5,12709.919127877,2,12711.921350553,6,12717.911195757,12726.537392209,4
"57","sub-02","30-Jun-2016 12:09:03",1,7,"vision",4,0.725,56.5403645833333,7.7418136489996,65,12598.093116225,12730.558493502,12732.060154052,2,12734.062387886,2,12736.064593239,6,12742.054486097,12749.796299746,4
"58","sub-02","30-Jun-2016 12:09:03",1,8,"vision",5,0.95,79.154296875,7.07452117000139,95,12598.093116225,12753.817485537,12755.319053184,2.5,12757.821951217,2,12759.824043544,5,12764.812931378,12771.887452548,3
"59","sub-02","30-Jun-2016 12:09:03",1,9,"vision",3,0.5,29.8072916666667,4.68860033400051,35,12598.093116225,12774.907451319,12776.40908716,2,12778.411201873,2,12780.41352262,6,12786.403356154,12791.091956488,5
"60","sub-02","30-Jun-2016 12:09:03",1,10,"vision",1,0.05,7.12955729166667,4.92210415899899,5,12598.093116225,12796.114151165,12797.615856822,2,12799.617938717,2,12801.620227798,5,12806.609057522,12811.531161681,2
"61","sub-02","30-Jun-2016 12:09:03",1,11,"vision",4,0.725,50.2161458333333,9.66071416899831,95,12598.093116225,12813.566660952,12815.068420697,3.5,12818.555575226,2,12820.557702278,6,12826.547704316,12836.208418485,3
"62","sub-02","30-Jun-2016 12:09:03",1,12,"vision",4,0.725,36.921875,5.47272590300054,5,12598.093116225,12839.22830427,12840.729956139,2,12842.732326106,2,12844.734488778,5,12849.723196849,12855.195922752,3
"63","sub-02","30-Jun-2016 12:09:03",1,13,"vision",3,0.5,40.1686197916667,4.15470830900085,65,12598.093116225,12858.215909566,12859.717564497,3.5,12863.221612945,2,12865.223749417,6,12871.213588886,12875.368297195,5
"64","sub-02","30-Jun-2016 12:09:03",1,14,"vision",3,0.5,46.25390625,5.07224083300025,35,12598.093116225,12880.390488785,12881.892038677,3,12884.895351449,2,12886.897552091,5,12891.886439681,12896.958680514,5
"65","sub-02","30-Jun-2016 12:09:03",1,15,"vision",1,0.05,1.09244791666667,7.14115462500013,35,12598.093116225,12901.98096757,12903.482630966,2.5,12905.968674363,2,12907.970917428,6,12913.977494337,12921.118648962,5
"66","sub-02","30-Jun-2016 12:09:03",1,16,"vision",1,0.05,3.90950520833333,5.40598905300067,35,12598.093116225,12926.140934886,12927.642710637,2.5,12930.14528481,2,12932.147591128,6,12938.137417605,12943.543406658,3
"67","sub-02","30-Jun-2016 12:09:03",1,17,"vision",2,0.275,21.5299479166667,6.29023724800027,35,12598.093116225,12946.563382393,12948.065034761,3,12951.068512064,2,12953.070671616,5,12958.059471024,12964.349708272,2
"68","sub-02","30-Jun-2016 12:09:03",1,18,"vision",2,0.275,24.8216145833333,5.00562831299976,5,12598.093116225,12966.385243983,12967.886909801,3,12970.873540134,2,12972.875740076,5,12977.86456661,12982.870194923,4
"69","sub-02","30-Jun-2016 12:09:03",1,19,"vision",2,0.275,29.1744791666667,8.04230990500037,65,12598.093116225,12986.891322109,12988.392946387,3,12991.396183141,2,12993.398380499,5,12998.387218884,13006.429528789,3
"70","sub-02","30-Jun-2016 12:09:03",1,20,"vision",2,0.275,29.5247395833333,3.63729600199986,35,12598.093116225,13009.449509023,13010.951192219,3,13013.954485008,2,13015.956598923,5,13020.945505833,13024.582801835,5
"71","sub-02","30-Jun-2016 12:09:03",1,21,"vision",5,0.95,98.8919270833333,3.75428420599928,65,12598.093116225,13029.604998842,13031.106657725,2.5,13033.609418597,2,13035.611731196,5,13040.600511729,13044.354795935,2
"72","sub-02","30-Jun-2016 12:09:03",1,22,"vision",4,0.725,60.724609375,3.48719592599991,5,12598.093116225,13046.390267379,13047.891855344,2,13049.877476946,2,13051.879655716,5,13056.868406114,13060.35560204,5
"73","sub-02","30-Jun-2016 12:09:03",1,23,"vision",2,0.275,39.2545572916667,2.08570794300067,65,12598.093116225,13065.377791218,13066.879553417,3,13069.882896449,2,13071.885086942,5,13076.873841726,13078.959549669,2
"74","sub-02","30-Jun-2016 12:09:03",1,24,"vision",3,0.5,50.1608072916667,5.48939305099884,65,12598.093116225,13080.995147398,13082.49681006,3,13085.483429084,2,13087.485546052,5,13092.474347785,13097.963740836,2
"75","sub-02","30-Jun-2016 12:09:03",1,25,"vision",1,0.05,0.455729166666667,4.28810965800039,5,12598.093116225,13099.999362828,13101.501140077,3.5,13104.988159417,2,13106.990369038,5,13111.979275971,13116.267385629,4
"76","sub-02","30-Jun-2016 12:09:03",2,1,"pain",5,49,30.0533854166667,9.59402506699917,35,13150.503197799,13150.521842935,13152.023417015,2.5,13154.456255616,2,13156.461617356,5,13161.50055303,13171.094578097,5
"77","sub-02","30-Jun-2016 12:09:03",2,2,"pain",5,49,38.9407552083333,7.95874886399906,5,13150.503197799,13176.116656205,13177.618373435,3,13180.557524448,2,13182.557185834,5,13187.612680131,13195.571428995,4
"78","sub-02","30-Jun-2016 12:09:03",2,3,"pain",1,45,8.78776041666667,5.33901728899946,5,13150.503197799,13199.626057814,13201.12759518,3,13204.059240121,2,13206.066451094,6,13212.123222089,13217.462239378,5
"79","sub-02","30-Jun-2016 12:09:03",2,4,"pain",4,48,3.32356770833333,4.93885209799919,35,13150.503197799,13222.484558341,13223.986234002,3.5,13227.42430925,2,13229.425447211,6,13235.482157971,13240.421010069,2
"80","sub-02","30-Jun-2016 12:09:03",2,5,"pain",3,47,8.431640625,5.75637444099993,95,13150.503197799,13242.456588834,13243.958227045,3.5,13247.384138518,2,13249.380911563,6,13255.437541704,13261.193916145,5
"81","sub-02","30-Jun-2016 12:09:03",2,6,"pain",3,47,31.9869791666667,5.92330803500045,35,13150.503197799,13266.216077303,13267.717821525,2.5,13270.15685997,2,13272.155924157,6,13278.212605416,13284.135913451,5
"82","sub-02","30-Jun-2016 12:09:03",2,7,"pain",4,48,25.9296875,5.82314339200093,5,13150.503197799,13289.158110941,13290.659747575,3,13293.597321203,2,13295.598567839,6,13301.655201438,13307.47834483,4
"83","sub-02","30-Jun-2016 12:09:03",2,8,"pain",3,47,34.255859375,4.05449711300025,95,13150.503197799,13311.499409939,13313.00107292,2,13314.940760467,2,13316.938665082,5,13321.994309693,13326.048806806,4
"84","sub-02","30-Jun-2016 12:09:03",2,9,"pain",3,47,43.1341145833333,3.78762565100078,95,13150.503197799,13330.069934411,13331.571556951,3.5,13335.011410378,2,13337.010919612,6,13343.067492531,13346.855118182,4
"85","sub-02","30-Jun-2016 12:09:03",2,10,"pain",1,45,15.7701822916667,2.08567802300058,65,13150.503197799,13350.876192967,13352.377785816,3.5,13355.816976161,2,13357.817176154,5,13362.872734731,13364.958412754,2
"86","sub-02","30-Jun-2016 12:09:03",2,11,"pain",1,45,14.775390625,3.63734724999995,95,13150.503197799,13367.010578712,13368.512341266,2,13370.447495609,2,13372.449989273,6,13378.50661618,13382.14396343,5
"87","sub-02","30-Jun-2016 12:09:03",2,12,"pain",3,47,42.5182291666667,6.80758681099906,95,13150.503197799,13387.166222261,13388.667911763,2.5,13391.106796871,2,13393.106129583,6,13399.16276875,13405.970355561,4
"88","sub-02","30-Jun-2016 12:09:03",2,13,"pain",2,46,40.7526041666667,7.17472606399861,5,13150.503197799,13409.991357208,13411.493066508,3,13414.432664335,2,13416.43187933,5,13421.48732573,13428.662051794,2
"89","sub-02","30-Jun-2016 12:09:03",2,14,"pain",5,49,56.677734375,4.23798505400009,95,13150.503197799,13430.680796261,13432.18259182,3.5,13435.624021251,2,13437.621862747,6,13443.678551072,13447.916536126,2
"90","sub-02","30-Jun-2016 12:09:03",2,15,"pain",2,46,39.740234375,2.63633639799991,65,13150.503197799,13449.952176906,13451.453864439,2,13453.377851672,2,13455.374747149,6,13461.431401302,13464.0677377,3
"91","sub-02","30-Jun-2016 12:09:03",2,16,"pain",2,46,29.39453125,3.72082042399961,35,13150.503197799,13467.087671375,13468.589391228,2,13470.530602391,2,13472.526984132,5,13477.582539715,13481.303360139,4
"92","sub-02","30-Jun-2016 12:09:03",2,17,"pain",1,45,22.7506510416667,2.55297418800001,65,13150.503197799,13485.324556932,13486.826206231,3.5,13490.265229914,2,13492.265422198,6,13498.322109577,13500.875083765,3
"93","sub-02","30-Jun-2016 12:09:03",2,18,"pain",2,46,25.2135416666667,2.4027558100006,65,13150.503197799,13503.895012528,13505.396668159,3.5,13508.836046988,2,13510.836044283,5,13515.891492593,13518.294248403,3
"94","sub-02","30-Jun-2016 12:09:03",2,19,"pain",1,45,4.505859375,7.40827899700162,5,13150.503197799,13521.314224813,13522.815878798,2,13524.756249912,2,13526.753552553,5,13531.80905402,13539.217333017,3
"95","sub-02","30-Jun-2016 12:09:03",2,20,"pain",2,46,2.02213541666667,4.92214025099929,95,13150.503197799,13542.237231889,13543.738999346,2,13545.679648286,2,13547.676645335,5,13552.732222668,13557.654362919,2
"96","sub-02","30-Jun-2016 12:09:03",2,21,"pain",5,49,69.974609375,5.02235610000025,65,13150.503197799,13559.689824854,13561.191586739,2.5,13563.617273154,2,13565.613094027,6,13571.669674488,13576.692030588,3
"97","sub-02","30-Jun-2016 12:09:03",2,22,"pain",4,48,61.51171875,5.12243686399961,35,13150.503197799,13579.711900671,13581.213652452,2,13583.153790649,2,13585.15123766,6,13591.207905066,13596.33034193,5
"98","sub-02","30-Jun-2016 12:09:03",2,23,"pain",4,48,41.62109375,5.08899755700077,5,13150.503197799,13601.352523288,13602.854192158,2.5,13605.291738623,2,13607.292419831,5,13612.347888913,13617.43688647,3
"99","sub-02","30-Jun-2016 12:09:03",2,24,"pain",5,49,76.9674479166667,5.33926079199955,5,13150.503197799,13620.456822599,13621.958629148,2.5,13624.399803547,2,13626.396735321,6,13632.453467059,13637.792727851,3
"100","sub-02","30-Jun-2016 12:09:03",2,25,"pain",4,48,26.0657552083333,3.23703900500004,95,13150.503197799,13640.812754984,13642.314410532,3.5,13645.754542584,2,13647.753649175,6,13653.810300332,13657.047339337,2
"101","sub-03","02-Jul-2016 11:03:08",1,1,"vision",3,0.5,59.7545572916667,6.6741626740004,95,8458.354331989,8458.389873437,8459.891485373,2.5,8462.360804502,2,8464.363174086,6,8470.35293904,8477.027101714,4
"102","sub-03","02-Jul-2016 11:03:08",1,2,"vision",2,0.275,45.2708333333333,4.55515175999972,95,8458.354331989,8481.048193924,8482.549866613,2,8484.552071971,2,8486.554162252,6,8492.544110418,8497.099262178,4
"103","sub-03","02-Jul-2016 11:03:08",1,3,"vision",2,0.275,42.890625,2.63627040900064,65,8458.354331989,8501.1203506,8502.622002917,2.5,8505.124819075,2,8507.126973646,6,8513.116775038,8515.753045447,3
"104","sub-03","02-Jul-2016 11:03:08",1,4,"vision",4,0.725,78.201171875,2.26930516600078,65,8458.354331989,8518.773146145,8520.274732624,2,8522.277022743,2,8524.279263252,5,8529.267953788,8531.537258954,3
"105","sub-03","02-Jul-2016 11:03:08",1,5,"vision",5,0.95,92.17578125,6.90775719900012,5,8458.354331989,8534.55725534,8536.058813528,3.5,8539.562695518,2,8541.564877221,5,8546.553673063,8553.461430262,3
"106","sub-03","02-Jul-2016 11:03:08",1,6,"vision",1,0.05,5.154296875,2.8198487460013,65,8458.354331989,8556.481340528,8557.983085348,3,8560.986419818,2,8562.988613396,6,8568.978411908,8571.798260654,2
"107","sub-03","02-Jul-2016 11:03:08",1,7,"vision",3,0.5,52.6940104166667,5.2559362789998,5,8458.354331989,8573.817106582,8575.318779832,3.5,8578.822765361,2,8580.824975129,6,8586.814752943,8592.070689222,4
"108","sub-03","02-Jul-2016 11:03:08",1,8,"vision",4,0.725,65.6640625,2.11914380599956,95,8458.354331989,8596.091794144,8597.59334165,2.5,8600.09614708,2,8602.098388518,5,8607.087122184,8609.20626599,3
"109","sub-03","02-Jul-2016 11:03:08",1,9,"vision",2,0.275,41.0611979166667,2.01902639099899,35,8458.354331989,8612.226165517,8613.727912586,2,8615.730011887,2,8617.732336317,5,8622.721038243,8624.740064634,3
"110","sub-03","02-Jul-2016 11:03:08",1,10,"vision",1,0.05,5.13216145833333,2.97011970400126,65,8458.354331989,8627.760032435,8629.261725364,3,8632.26503629,2,8634.2672406,5,8639.255946078,8642.226065782,3
"111","sub-03","02-Jul-2016 11:03:08",1,11,"vision",5,0.95,97.96875,2.15239574800034,95,8458.354331989,8645.246024651,8646.747589715,2,8648.749808294,2,8650.752012639,6,8656.741929372,8658.89432512,5
"112","sub-03","02-Jul-2016 11:03:08",1,12,"vision",3,0.5,19.576171875,6.52388047800014,95,8458.354331989,8663.916598215,8665.418271913,2.5,8667.921053382,2,8669.923246165,6,8675.913061092,8682.43694157,3
"113","sub-03","02-Jul-2016 11:03:08",1,13,"vision",3,0.5,32.1438802083333,2.85316517499996,65,8458.354331989,8685.456957596,8686.958794771,2.5,8689.461468967,2,8691.463647556,6,8697.453490245,8700.30665542,4
"114","sub-03","02-Jul-2016 11:03:08",1,14,"vision",4,0.725,65.9361979166667,4.10469664999982,35,8458.354331989,8704.327880582,8705.829450322,2.5,8708.332327765,2,8710.334420124,6,8716.32430911,8720.42900576,5
"115","sub-03","02-Jul-2016 11:03:08",1,15,"vision",2,0.275,17.2311197916667,3.1702669210008,5,8458.354331989,8725.451185853,8726.952759016,3.5,8730.456745483,2,8732.458830803,6,8738.448715679,8741.6189826,5
"116","sub-03","02-Jul-2016 11:03:08",1,16,"vision",5,0.95,95.5813802083333,2.61972814000001,65,8458.354331989,8746.641186146,8748.142875021,2,8750.145086964,2,8752.147342222,5,8757.13600195,8759.75573009,3
"117","sub-03","02-Jul-2016 11:03:08",1,17,"vision",1,0.05,7.37239583333333,3.68747780000012,35,8458.354331989,8762.775732215,8764.27734167,3,8767.280769629,2,8769.282876046,6,8775.272675416,8778.960153216,5
"118","sub-03","02-Jul-2016 11:03:08",1,18,"vision",2,0.275,19.3717447916667,6.20697052600008,35,8458.354331989,8783.982384685,8785.483955017,3,8788.487389391,2,8790.489479466,6,8796.479423412,8802.686393938,3
"119","sub-03","02-Jul-2016 11:03:08",1,19,"vision",5,0.95,95,2.76975533599943,95,8458.354331989,8805.706350771,8807.208036781,3.5,8810.711932754,2,8812.714159804,5,8817.702829553,8820.472584889,4
"120","sub-03","02-Jul-2016 11:03:08",1,20,"vision",1,0.05,3.36979166666667,3.88771984300001,95,8458.354331989,8824.493659498,8825.995431684,2.5,8828.498072472,2,8830.500326086,6,8836.490216864,8840.377936707,2
"121","sub-03","02-Jul-2016 11:03:08",1,21,"vision",1,0.05,5.63606770833333,2.76976304900018,95,8458.354331989,8842.396852566,8843.898483879,3.5,8847.402382055,2,8849.404593056,5,8854.393312278,8857.163075327,5
"122","sub-03","02-Jul-2016 11:03:08",1,22,"vision",5,0.95,95,1.85219681600029,95,8458.354331989,8862.18532849,8863.687013225,2,8865.689218979,2,8867.691426001,6,8873.681267217,8875.533464033,2
"123","sub-03","02-Jul-2016 11:03:08",1,23,"vision",4,0.725,67.609375,2.35271920500054,35,8458.354331989,8877.552303192,8879.053934272,2.5,8881.556789503,2,8883.558834325,6,8889.548754672,8891.901473877,5
"124","sub-03","02-Jul-2016 11:03:08",1,24,"vision",4,0.725,67.2981770833333,1.88552837600037,35,8458.354331989,8896.923574462,8898.425238106,2,8900.427435344,2,8902.429752328,5,8907.418461395,8909.303989771,3
"125","sub-03","02-Jul-2016 11:03:08",1,25,"vision",3,0.5,17.4772135416667,3.65416034400005,95,8458.354331989,8912.323979166,8913.82571478,3,8916.828903559,2,8918.831183955,6,8924.820996952,8928.475157296,4
"126","sub-03","02-Jul-2016 11:03:08",2,1,"pain",4,48,52.8307291666667,6.45713707499999,95,8991.058775135,8991.060857186,8992.562524925,3,8995.514735093,2,8997.517914252,6,9003.557903855,9010.01504093,4
"127","sub-03","02-Jul-2016 11:03:08",2,2,"pain",1,45,14.474609375,4.85538634600016,65,8991.058775135,9014.036193342,9015.537782141,2,9017.478239457,2,9019.475478204,5,9024.530992479,9029.386378825,5
"128","sub-03","02-Jul-2016 11:03:08",2,3,"pain",5,49,43.8658854166667,8.52610207500038,5,8991.058775135,9034.408666385,9035.910320907,2.5,9038.349182763,2,9040.348506404,5,9045.404024106,9053.930126181,4
"129","sub-03","02-Jul-2016 11:03:08",2,4,"pain",3,47,35.3352864583333,6.64078277100089,5,8991.058775135,9057.951249492,9059.452878363,2,9061.393002251,2,9063.390670598,5,9068.446141632,9075.086924403,5
"130","sub-03","02-Jul-2016 11:03:08",2,5,"pain",2,46,11.8072916666667,3.88775696199991,5,8991.058775135,9080.109020104,9081.610764906,3.5,9085.048470668,2,9087.050075373,6,9093.106656181,9096.994413143,4
"131","sub-03","02-Jul-2016 11:03:08",2,6,"pain",2,46,8.35286458333333,5.20581519799998,5,8991.058775135,9101.015393669,9102.517166646,2.5,9104.958050046,2,9106.955317341,5,9112.010846669,9117.216661867,2
"132","sub-03","02-Jul-2016 11:03:08",2,7,"pain",1,45,6.259765625,3.22032363700055,5,8991.058775135,9119.252223866,9120.7539575,2,9122.679068234,2,9124.674920097,5,9129.730401395,9132.950725032,2
"133","sub-03","02-Jul-2016 11:03:08",2,8,"pain",3,47,18.6360677083333,4.80545854199954,5,8991.058775135,9134.986211421,9136.487978101,2.5,9138.913848873,2,9140.909410995,6,9146.966074188,9151.77153273,5
"134","sub-03","02-Jul-2016 11:03:08",2,9,"pain",1,45,7.49544270833333,2.76984110200101,35,8991.058775135,9156.793683465,9158.295345816,2,9160.23398677,2,9162.233055973,5,9167.288516128,9170.05835723,5
"135","sub-03","02-Jul-2016 11:03:08",2,10,"pain",5,49,55.2864583333333,3.63731546300005,95,8991.058775135,9175.080533416,9176.582101853,3.5,9180.020274058,2,9182.021525766,5,9187.077152788,9190.714468251,4
"136","sub-03","02-Jul-2016 11:03:08",2,11,"pain",3,47,54.1061197916667,4.3549320660004,5,8991.058775135,9194.735460415,9196.237201727,2.5,9198.677518756,2,9200.675465844,5,9205.730913627,9210.085845693,2
"137","sub-03","02-Jul-2016 11:03:08",2,12,"pain",5,49,65,2.51956656500079,65,8991.058775135,9212.121435441,9213.623075288,3,9216.548234373,2,9218.545193026,5,9223.600673881,9226.120240446,5
"138","sub-03","02-Jul-2016 11:03:08",2,13,"pain",2,46,26.1360677083333,3.77091996899981,35,8991.058775135,9231.142428095,9232.644064199,2,9234.582466049,2,9236.581739471,5,9241.637202466,9245.408122435,3
"139","sub-03","02-Jul-2016 11:03:08",2,14,"pain",3,47,62.751953125,6.9745218299995,95,8991.058775135,9248.428034418,9249.929799714,3,9252.871259937,2,9254.868583847,5,9259.924021661,9266.898543491,5
"140","sub-03","02-Jul-2016 11:03:08",2,15,"pain",2,46,4.62565104166667,2.56966974700117,65,8991.058775135,9271.920621731,9273.422385853,3,9276.359937976,2,9278.361053944,5,9283.416611874,9285.986281621,2
"141","sub-03","02-Jul-2016 11:03:08",2,16,"pain",3,47,41.724609375,4.50507305100109,65,8991.058775135,9288.021724936,9289.523480982,3,9292.448650472,2,9294.445578889,5,9299.501024881,9304.006097932,2
"142","sub-03","02-Jul-2016 11:03:08",2,17,"pain",5,49,69.2962239583333,2.38610955799959,35,8991.058775135,9306.041726497,9307.543365357,3.5,9310.96966233,2,9312.965987369,6,9319.022560472,9321.40867003,3
"143","sub-03","02-Jul-2016 11:03:08",2,18,"pain",1,45,8.68619791666667,4.17141815200011,5,8991.058775135,9324.428536776,9325.930313224,2.5,9328.371787657,2,9330.368578167,5,9335.42399358,9339.595411732,4
"144","sub-03","02-Jul-2016 11:03:08",2,19,"pain",4,48,49.5416666666667,3.37052155699894,35,8991.058775135,9343.616497543,9345.118037629,3.5,9348.558245821,2,9350.557401267,5,9355.612930555,9358.983452112,2
"145","sub-03","02-Jul-2016 11:03:08",2,20,"pain",2,46,38.234375,2.38610477300062,65,8991.058775135,9361.019027312,9362.520677743,3.5,9365.946298512,2,9367.943342965,6,9373.999884088,9376.385988861,4
"146","sub-03","02-Jul-2016 11:03:08",2,21,"pain",5,49,71.9361979166667,4.70531610100079,5,8991.058775135,9380.407057829,9381.908749616,2,9383.848782315,2,9385.846416243,5,9390.901841362,9395.607157463,4
"147","sub-03","02-Jul-2016 11:03:08",2,22,"pain",4,48,22.5227864583333,6.47393965100127,35,8991.058775135,9399.628194538,9401.129830316,3.5,9404.569841753,2,9406.569300576,6,9412.625831553,9419.099771204,5
"148","sub-03","02-Jul-2016 11:03:08",2,23,"pain",4,48,35.125,3.08676578500126,5,8991.058775135,9424.121887319,9425.623641902,3,9428.56171441,2,9430.562304544,6,9436.618964827,9439.705730612,2
"149","sub-03","02-Jul-2016 11:03:08",2,24,"pain",4,48,59.4192708333333,5.03888834000099,35,8991.058775135,9441.741327661,9443.242990521,3.5,9446.669100439,2,9448.665720638,6,9454.722271734,9459.761160074,2
"150","sub-03","02-Jul-2016 11:03:08",2,25,"pain",1,45,28.6341145833333,3.67071615900022,35,8991.058775135,9461.780079185,9463.281853802,3,9466.224137299,2,9468.220640461,6,9474.277178574,9477.947894733,2
"151","sub-04","02-Jul-2016 12:18:14",1,1,"vision",5,0.95,58.36328125,24.5937886249994,95,12860.308652624,12860.344085691,12861.845712712,2.5,12864.315103791,2,12866.31733472,6,12872.307149595,12896.90093822,2
"152","sub-04","02-Jul-2016 12:18:14",1,2,"vision",2,0.275,21.2493489583333,3.53737249199912,5,12860.308652624,12898.936629005,12900.438345846,2.5,12902.924274915,2,12904.926476515,6,12910.91640435,12914.453776842,2
"153","sub-04","02-Jul-2016 12:18:14",1,3,"vision",5,0.95,67.4010416666667,3.00345346199902,95,12860.308652624,12916.472721356,12917.974323298,3.5,12921.478122872,2,12923.480311532,5,12928.4690948,12931.472548262,3
"154","sub-04","02-Jul-2016 12:18:14",1,4,"vision",2,0.275,21.6002604166667,1.78536487800011,65,12860.308652624,12934.492430326,12935.994107597,2.5,12938.49686707,2,12940.499154807,5,12945.487946615,12947.273311493,2
"155","sub-04","02-Jul-2016 12:18:14",1,5,"vision",5,0.95,77.6744791666667,2.50273193800058,35,12860.308652624,12949.292090625,12950.793861312,3.5,12954.297733108,2,12956.299861508,6,12962.289930367,12964.792662305,4
"156","sub-04","02-Jul-2016 12:18:14",1,6,"vision",4,0.725,47.6822916666667,1.83535423399917,5,12860.308652624,12968.813748348,12970.315317817,3.5,12973.819266756,2,12975.821486718,6,12981.811285772,12983.646640006,4
"157","sub-04","02-Jul-2016 12:18:14",1,7,"vision",4,0.725,47.3717447916667,1.56836555600057,5,12860.308652624,12987.667946819,12989.169457008,2,12991.171751211,2,12993.173956073,5,12998.162835652,12999.731201208,5
"158","sub-04","02-Jul-2016 12:18:14",1,8,"vision",2,0.275,21.43359375,2.30265925100139,65,12860.308652624,13004.753366988,13006.255053779,3,13009.258369321,2,13011.260461515,5,13016.249297059,13018.55195631,3
"159","sub-04","02-Jul-2016 12:18:14",1,9,"vision",1,0.05,2.107421875,1.43504082899926,5,12860.308652624,13021.571916594,13023.073611711,3,13026.076809206,2,13028.079121982,6,13034.068956699,13035.503997528,5
"160","sub-04","02-Jul-2016 12:18:14",1,10,"vision",1,0.05,1.89322916666667,1.96899160999965,5,12860.308652624,13040.526081579,13042.027769337,3,13045.031159316,2,13047.033371895,6,13053.02318036,13054.99217197,3
"161","sub-04","02-Jul-2016 12:18:14",1,11,"vision",3,0.5,21.73046875,1.56843163700069,65,12860.308652624,13058.012125261,13059.513696518,3.5,13063.017673724,2,13065.019879337,6,13071.009757269,13072.578188906,2
"162","sub-04","02-Jul-2016 12:18:14",1,12,"vision",3,0.5,33.4231770833333,1.6850977590002,95,12860.308652624,13074.597105955,13076.09877361,3.5,13079.602648989,2,13081.604778647,5,13086.593661806,13088.278759565,2
"163","sub-04","02-Jul-2016 12:18:14",1,13,"vision",2,0.275,27.2337239583333,0.91782182300085,65,12860.308652624,13090.31432908,13091.816118815,2,13093.801608732,2,13095.80384372,5,13100.792546157,13101.71036798,2
"164","sub-04","02-Jul-2016 12:18:14",1,14,"vision",3,0.5,42.3763020833333,1.23464405199957,65,12860.308652624,13103.745827581,13105.247643514,2.5,13107.733646295,2,13109.735849211,5,13114.724657896,13115.959301948,5
"165","sub-04","02-Jul-2016 12:18:14",1,15,"vision",5,0.95,94.068359375,2.13581541399981,95,12860.308652624,13120.981592196,13122.483184283,3.5,13125.987059056,2,13127.989353976,5,13132.978067632,13135.113883046,5
"166","sub-04","02-Jul-2016 12:18:14",1,16,"vision",4,0.725,51.3997395833333,1.55174919400088,65,12860.308652624,13140.136057798,13141.637717155,2,13143.639840134,2,13145.642134956,6,13151.632060478,13153.183809672,5
"167","sub-04","02-Jul-2016 12:18:14",1,17,"vision",1,0.05,1.35416666666667,1.71868821399949,65,12860.308652624,13158.205916822,13159.707685562,3,13162.710955686,2,13164.713200673,6,13170.703021644,13172.421709858,4
"168","sub-04","02-Jul-2016 12:18:14",1,18,"vision",3,0.5,47.1953125,1.68526974399902,35,12860.308652624,13176.442713532,13177.94456955,3,13180.947776978,2,13182.950000232,6,13188.939799338,13190.625069082,5
"169","sub-04","02-Jul-2016 12:18:14",1,19,"vision",3,0.5,45.7994791666667,2.06910068800062,5,12860.308652624,13195.647215712,13197.148986779,2,13199.151196797,2,13201.153328871,6,13207.143208475,13209.212309163,3
"170","sub-04","02-Jul-2016 12:18:14",1,20,"vision",1,0.05,3.19140625,1.51839379600096,65,12860.308652624,13212.232198189,13213.733836456,2,13215.736047491,2,13217.738375526,6,13223.728174295,13225.246568091,5
"171","sub-04","02-Jul-2016 12:18:14",1,21,"vision",4,0.725,56.375,1.7686864619991,65,12860.308652624,13230.268745305,13231.770597861,2,13233.772722106,2,13235.774821952,5,13240.76365887,13242.532345332,4
"172","sub-04","02-Jul-2016 12:18:14",1,22,"vision",5,0.95,88.830078125,1.95230484800049,5,12860.308652624,13246.553482582,13248.055075832,2,13250.057358478,2,13252.059564177,6,13258.049384082,13260.00168893,4
"173","sub-04","02-Jul-2016 12:18:14",1,23,"vision",1,0.05,2.12239583333333,1.70188478300042,35,12860.308652624,13264.022746913,13265.524308773,2.5,13268.027183031,2,13270.029390389,6,13276.019266633,13277.721151416,3
"174","sub-04","02-Jul-2016 12:18:14",1,24,"vision",4,0.725,55.2233072916667,1.25139559099989,65,12860.308652624,13280.741100264,13282.242865156,2,13284.24496355,2,13286.247359719,6,13292.237097918,13293.488493509,4
"175","sub-04","02-Jul-2016 12:18:14",1,25,"vision",2,0.275,9.19986979166667,1.76876478099985,95,12860.308652624,13297.509701605,13299.011340683,3.5,13302.515299598,2,13304.51744876,6,13310.507245563,13312.276010344,5
"176","sub-04","02-Jul-2016 12:18:14",2,1,"pain",1,45,73.263671875,7.52504407699962,35,13329.859900566,13329.861954386,13331.363724334,2,13333.315996267,2,13335.31802388,6,13341.358020616,13348.883064693,3
"177","sub-04","02-Jul-2016 12:18:14",2,2,"pain",5,49,88.4095052083333,4.30487465700025,5,13329.859900566,13351.903019471,13353.404623422,3,13356.345760468,2,13358.343532195,6,13364.400049328,13368.704923985,2
"178","sub-04","02-Jul-2016 12:18:14",2,3,"pain",4,48,54.2819010416667,1.38489816100082,65,13329.859900566,13370.740421365,13372.242155574,2.5,13374.668148787,2,13376.663589038,5,13381.719292512,13383.104190673,2
"179","sub-04","02-Jul-2016 12:18:14",2,4,"pain",5,49,82.4446614583333,1.90210391599976,65,13329.859900566,13385.139638477,13386.641258789,2.5,13389.067125099,2,13391.062836761,6,13397.119472916,13399.021576832,4
"180","sub-04","02-Jul-2016 12:18:14",2,5,"pain",5,49,84.982421875,2.33594433399958,35,13329.859900566,13403.042785385,13404.544380294,3,13407.483651265,2,13409.483214896,5,13414.538679244,13416.874623578,3
"181","sub-04","02-Jul-2016 12:18:14",2,6,"pain",1,45,39.6848958333333,1.03453225599878,35,13329.859900566,13419.894699004,13421.396309416,2.5,13423.836717309,2,13425.834501677,5,13430.890056283,13431.924588539,2
"182","sub-04","02-Jul-2016 12:18:14",2,7,"pain",2,46,5.66536458333333,3.03672737000124,5,13329.859900566,13433.943531202,13435.445222342,2,13437.387105722,2,13439.382866162,5,13444.438355883,13447.475083253,2
"183","sub-04","02-Jul-2016 12:18:14",2,8,"pain",5,49,68.9856770833333,1.63528356399911,35,13329.859900566,13449.510652644,13451.012282978,2,13452.937354354,2,13454.933360989,6,13460.98994135,13462.625224914,3
"184","sub-04","02-Jul-2016 12:18:14",2,9,"pain",2,46,42.0045572916667,1.60176152299937,95,13329.859900566,13465.645177726,13467.146859919,3,13470.087701418,2,13472.085639792,5,13477.141238291,13478.742999814,3
"185","sub-04","02-Jul-2016 12:18:14",2,10,"pain",3,47,51.5638020833333,1.35159677800038,95,13329.859900566,13481.762984974,13483.264641008,3.5,13486.704641974,2,13488.7039876,5,13493.759450844,13495.111047622,5
"186","sub-04","02-Jul-2016 12:18:14",2,11,"pain",3,47,52.7942708333333,1.50160677599888,95,13329.859900566,13500.133144571,13501.63491187,3.5,13505.072989496,2,13507.074241292,5,13512.129800073,13513.631406849,4
"187","sub-04","02-Jul-2016 12:18:14",2,12,"pain",1,45,31.96484375,1.75205839599948,35,13329.859900566,13517.652470268,13519.154245207,3,13522.093729567,2,13524.092949128,5,13529.148476393,13530.900534789,3
"188","sub-04","02-Jul-2016 12:18:14",2,13,"pain",4,48,65.013671875,1.73530426300022,95,13329.859900566,13533.920416357,13535.422105415,3,13538.361827039,2,13540.360849193,5,13545.416430465,13547.151734728,4
"189","sub-04","02-Jul-2016 12:18:14",2,14,"pain",4,48,45.08203125,1.83540442599951,95,13329.859900566,13551.172802689,13552.674550597,2.5,13555.114809041,2,13557.11279342,5,13562.168226932,13564.003631358,5
"190","sub-04","02-Jul-2016 12:18:14",2,15,"pain",2,46,30.48828125,0.767636807000599,35,13329.859900566,13569.025895681,13570.527467869,2.5,13572.966523254,2,13574.965826808,6,13581.02237062,13581.790007427,5
"191","sub-04","02-Jul-2016 12:18:14",2,16,"pain",3,47,60.771484375,1.71868767600063,95,13329.859900566,13586.812183534,13588.313790633,2,13590.252228528,2,13592.251550335,5,13597.306995154,13599.02568283,4
"192","sub-04","02-Jul-2016 12:18:14",2,17,"pain",4,48,66.6686197916667,1.83548612100094,5,13329.859900566,13603.04678842,13604.54833007,2.5,13606.988990808,2,13608.986681421,6,13615.043229551,13616.878715672,3
"193","sub-04","02-Jul-2016 12:18:14",2,18,"pain",5,49,86.7037760416667,1.56842269399931,35,13329.859900566,13619.898715736,13621.400258475,2.5,13623.840954728,2,13625.838489387,5,13630.89407175,13632.462494444,4
"194","sub-04","02-Jul-2016 12:18:14",2,19,"pain",1,45,17.115234375,1.16807678100122,5,13329.859900566,13636.483589696,13637.985246603,3.5,13641.425010639,2,13643.424672514,5,13648.480130158,13649.648206939,5
"195","sub-04","02-Jul-2016 12:18:14",2,20,"pain",2,46,41.1744791666667,1.4351365399998,65,13329.859900566,13654.670289977,13656.171988511,3.5,13659.610154843,2,13661.611434081,6,13667.667968116,13669.103104656,2
"196","sub-04","02-Jul-2016 12:18:14",2,21,"pain",4,48,77.3873697916667,1.15139761599858,5,13329.859900566,13671.138479585,13672.640235897,3,13675.565694114,2,13677.562339903,5,13682.617781991,13683.769179607,2
"197","sub-04","02-Jul-2016 12:18:14",2,22,"pain",2,46,39.9309895833333,0.867659609999464,35,13329.859900566,13685.804624935,13687.306448924,2.5,13689.732128929,2,13691.72784607,6,13697.784481537,13698.652141147,2
"198","sub-04","02-Jul-2016 12:18:14",2,23,"pain",3,47,39.4557291666667,1.3014307500016,5,13329.859900566,13700.68784521,13702.189390226,2,13704.11464188,2,13706.11050958,5,13711.166076925,13712.467507675,4
"199","sub-04","02-Jul-2016 12:18:14",2,24,"pain",3,47,30.4811197916667,0.73428960000092,35,13329.859900566,13716.488497834,13717.990272048,3,13720.929780678,2,13722.929060336,6,13728.98560366,13729.71989326,4
"200","sub-04","02-Jul-2016 12:18:14",2,25,"pain",1,45,19.1712239583333,1.48510505200102,95,13329.859900566,13733.740962107,13735.242644563,3.5,13738.682830211,2,13740.681854373,5,13745.737439924,13747.222544976,3
"201","sub-05","10-Jul-2016 17:31:04",1,1,"vision",4,0.725,93.6119791666667,6.77375298800007,65,2851.379009108,2851.414362419,2852.916003624,2,2854.884750946,2,2856.887086034,6,2862.89406458,2869.667817568,5
"202","sub-05","10-Jul-2016 17:31:04",1,2,"vision",3,0.5,78.7278645833333,3.50399025999968,5,2851.379009108,2874.689994201,2876.191678944,3.5,2879.695557732,2,2881.697735581,6,2887.687573341,2891.191563601,5
"203","sub-05","10-Jul-2016 17:31:04",1,3,"vision",4,0.725,88.8033854166667,4.07125884400011,65,2851.379009108,2896.213660434,2897.715345028,3.5,2901.219292784,2,2903.221426868,5,2908.210240453,2912.281499297,2
"204","sub-05","10-Jul-2016 17:31:04",1,4,"vision",5,0.95,96.7018229166667,2.61970633999999,95,2851.379009108,2914.300233336,2915.802017175,3.5,2919.305916411,2,2921.308125573,5,2926.296810904,2928.916517244,2
"205","sub-05","10-Jul-2016 17:31:04",1,5,"vision",1,0.05,26.212890625,5.02228673599984,65,2851.379009108,2930.95209301,2932.453663758,3,2935.440271708,2,2937.442584023,6,2943.432457926,2948.454744662,4
"206","sub-05","10-Jul-2016 17:31:04",1,6,"vision",3,0.5,87.306640625,3.02006941299987,35,2851.379009108,2952.475811997,2953.977497904,3,2956.980723864,2,2958.983009181,6,2964.972902551,2967.992971964,3
"207","sub-05","10-Jul-2016 17:31:04",1,7,"vision",3,0.5,75.6015625,1.71862285899988,65,2851.379009108,2971.012842677,2972.514610436,2.5,2975.017384112,2,2977.019469144,5,2982.008367461,2983.72699032,2
"208","sub-05","10-Jul-2016 17:31:04",1,8,"vision",2,0.275,50.71875,2.10245782500033,65,2851.379009108,2985.762564788,2987.264218913,3,2990.250735456,2,2992.252983845,5,2997.241767654,2999.344225479,5
"209","sub-05","10-Jul-2016 17:31:04",1,9,"vision",5,0.95,98.3385416666667,1.38491490699971,95,2851.379009108,3004.366384704,3005.86808487,3,3008.871390855,2,3010.873642912,6,3016.863488501,3018.248403408,5
"210","sub-05","10-Jul-2016 17:31:04",1,10,"vision",1,0.05,7.53385416666667,2.83652218599991,95,2851.379009108,3023.27058024,3024.772273068,2,3026.77448422,2,3028.776729246,6,3034.766577154,3037.60309934,3
"211","sub-05","10-Jul-2016 17:31:04",1,11,"vision",5,0.95,98.41796875,1.56850750100011,95,2851.379009108,3040.623105961,3042.124741727,2,3044.126966449,2,3046.129157524,5,3051.117889114,3052.686396615,4
"212","sub-05","10-Jul-2016 17:31:04",1,12,"vision",1,0.05,9.69661458333333,2.43598099700012,35,2851.379009108,3056.707387026,3058.209163449,2,3060.211373347,2,3062.213573057,6,3068.20344515,3070.639426147,5
"213","sub-05","10-Jul-2016 17:31:04",1,13,"vision",3,0.5,69.6536458333333,2.4527921619997,5,2851.379009108,3075.661651018,3077.163323887,2.5,3079.666164295,2,3081.668363775,6,3087.658254284,3090.111046446,4
"214","sub-05","10-Jul-2016 17:31:04",1,14,"vision",1,0.05,11.6881510416667,3.97109998399992,35,2851.379009108,3094.132132924,3095.633780298,2,3097.635993259,2,3099.638113921,5,3104.626979964,3108.598079948,5
"215","sub-05","10-Jul-2016 17:31:04",1,15,"vision",4,0.725,66.6751302083333,1.68529391099992,35,2851.379009108,3113.620273194,3115.121948235,3,3118.125195579,2,3120.127458139,6,3126.117357221,3127.802651132,2
"216","sub-05","10-Jul-2016 17:31:04",1,16,"vision",4,0.725,79.611328125,3.38715651100028,5,2851.379009108,3129.838182479,3131.339834649,3.5,3134.826905783,2,3136.829112422,5,3141.817981113,3145.205137624,2
"217","sub-05","10-Jul-2016 17:31:04",1,17,"vision",2,0.275,51.7864583333333,1.96894900799998,35,2851.379009108,3147.224013379,3148.725688996,2.5,3151.228457871,2,3153.230579204,6,3159.220487633,3161.189436641,4
"218","sub-05","10-Jul-2016 17:31:04",1,18,"vision",5,0.95,96.1393229166667,2.08572608600025,65,2851.379009108,3165.210554902,3166.712212941,2.5,3169.214878943,2,3171.217168375,5,3176.205948726,3178.291674812,5
"219","sub-05","10-Jul-2016 17:31:04",1,19,"vision",5,0.95,95,1.63518865000015,95,2851.379009108,3183.313813937,3184.815498173,2.5,3187.318262762,2,3189.320469904,6,3195.310362675,3196.945551325,5
"220","sub-05","10-Jul-2016 17:31:04",1,20,"vision",2,0.275,38.4055989583333,1.78527909400009,95,2851.379009108,3201.967729576,3203.469412816,2,3205.471626574,2,3207.473830207,5,3212.46261498,3214.247894074,3
"221","sub-05","10-Jul-2016 17:31:04",1,21,"vision",1,0.05,7.40885416666667,2.18576174600003,35,2851.379009108,3217.267954157,3218.769632963,2,3220.771885496,2,3222.774049779,5,3227.762753796,3229.948515542,3
"222","sub-05","10-Jul-2016 17:31:04",1,22,"vision",2,0.275,21.322265625,2.6362962750004,95,2851.379009108,3232.968612671,3234.470355868,3.5,3237.974146288,2,3239.976362411,6,3245.96624451,3248.602540785,5
"223","sub-05","10-Jul-2016 17:31:04",1,23,"vision",2,0.275,32.7213541666667,7.97552880900002,5,2851.379009108,3253.624718924,3255.12641452,2,3257.128625571,2,3259.130740886,5,3264.119604731,3272.09513354,5
"224","sub-05","10-Jul-2016 17:31:04",1,24,"vision",3,0.5,58.1158854166667,2.51949909199993,35,2851.379009108,3277.117304575,3278.618986071,3,3281.622232032,2,3283.624509702,5,3288.613297076,3291.132796168,4
"225","sub-05","10-Jul-2016 17:31:04",1,25,"vision",4,0.725,78.4908854166667,2.21915794699999,65,2851.379009108,3295.153868689,3296.65547583,2.5,3299.158366861,2,3301.160448268,5,3306.149311223,3308.36846917,2
"226","sub-05","10-Jul-2016 17:31:04",2,1,"pain",5,49,95.3815104166667,10.6953257949999,35,3332.226090738,3332.227994187,3333.729791505,2,3335.682848882,2,3337.684148974,5,3342.722897055,3353.41822285,2
"227","sub-05","10-Jul-2016 17:31:04",2,2,"pain",5,49,49.357421875,3.65413198199985,65,3332.226090738,3355.45372803,3356.955408472,2.5,3359.381182387,2,3361.37692995,6,3367.433537245,3371.087669227,2
"228","sub-05","10-Jul-2016 17:31:04",2,3,"pain",5,49,20.5260416666667,3.67085759400015,5,3332.226090738,3373.123253708,3374.624914358,2,3376.551145586,2,3378.545898643,5,3383.601336195,3387.272193789,3
"229","sub-05","10-Jul-2016 17:31:04",2,4,"pain",1,45,3.6328125,3.87105313600023,65,3332.226090738,3390.292183007,3391.793845232,3,3394.735357752,2,3396.732600462,5,3401.788094779,3405.659147915,3
"230","sub-05","10-Jul-2016 17:31:04",2,5,"pain",3,47,9.22200520833333,3.55398821900008,5,3332.226090738,3409.046097704,3410.547876943,3.5,3413.98512745,2,3415.987218248,5,3421.042740729,3424.596728948,4
"231","sub-05","10-Jul-2016 17:31:04",2,6,"pain",4,48,19.0364583333333,4.97220586000003,65,3332.226090738,3428.617792416,3430.119468348,3.5,3433.559567722,2,3435.558798452,5,3440.614324416,3445.586530276,4
"232","sub-05","10-Jul-2016 17:31:04",2,7,"pain",1,45,2.97200520833333,3.77089413800013,5,3332.226090738,3449.607534339,3451.109285884,2.5,3453.548366265,2,3455.547515993,6,3461.604140353,3465.375034491,4
"233","sub-05","10-Jul-2016 17:31:04",2,8,"pain",3,47,12.4440104166667,7.84203556000011,95,3332.226090738,3469.39603679,3470.897789231,3.5,3474.337989467,2,3476.337123239,5,3481.392646161,3489.234681721,3
"234","sub-05","10-Jul-2016 17:31:04",2,9,"pain",2,46,8.79817708333333,5.80648950700015,35,3332.226090738,3492.254596421,3493.756335785,3,3496.697755336,2,3498.695006363,6,3504.7517463,3510.558235807,3
"235","sub-05","10-Jul-2016 17:31:04",2,10,"pain",2,46,39.6178385416667,1.45173793200001,65,3332.226090738,3513.578175646,3515.079838075,2,3517.021437393,2,3519.017425695,6,3525.074094688,3526.52583262,2
"236","sub-05","10-Jul-2016 17:31:04",2,11,"pain",2,46,21.98828125,3.25371335599993,5,3332.226090738,3528.561321837,3530.063056943,2.5,3532.489342735,2,3534.48449206,6,3540.541160069,3543.794873425,3
"237","sub-05","10-Jul-2016 17:31:04",2,12,"pain",1,45,4.79752604166667,3.35375203700005,5,3332.226090738,3546.814861536,3548.316531202,3.5,3551.758220426,2,3553.755785536,6,3559.812495893,3563.16624793,3
"238","sub-05","10-Jul-2016 17:31:04",2,13,"pain",1,45,4.61328125,8.44276757199987,35,3332.226090738,3566.186217541,3567.687826119,3,3570.629650465,2,3572.62668531,5,3577.682117982,3586.124885554,2
"239","sub-05","10-Jul-2016 17:31:04",2,14,"pain",2,46,9.44661458333333,2.23590341499994,5,3332.226090738,3588.14366773,3589.645464202,3.5,3593.08777522,2,3595.084680702,6,3601.141421396,3603.377324811,3
"240","sub-05","10-Jul-2016 17:31:04",2,15,"pain",3,47,28.03515625,1.90225469999996,95,3332.226090738,3606.397243873,3607.898845736,2.5,3610.340293251,2,3612.337172098,5,3617.392605744,3619.294860444,3
"241","sub-05","10-Jul-2016 17:31:04",2,16,"pain",4,48,34.068359375,5.18918255900007,95,3332.226090738,3622.314847178,3623.816505773,3.5,3627.25826134,2,3629.255825302,6,3635.312386234,3640.501568793,2
"242","sub-05","10-Jul-2016 17:31:04",2,17,"pain",4,48,35.1497395833333,12.5807018340001,65,3332.226090738,3642.537190731,3644.038798699,2,3645.965201335,2,3647.959765995,6,3654.016344408,3666.597046242,4
"243","sub-05","10-Jul-2016 17:31:04",2,18,"pain",4,48,43.67578125,2.05240021899999,35,3332.226090738,3670.618097921,3672.119776075,2.5,3674.559995629,2,3676.55802631,5,3681.613454316,3683.665854535,4
"244","sub-05","10-Jul-2016 17:31:04",2,19,"pain",3,47,44.2037760416667,2.68639041500001,35,3332.226090738,3687.686972756,3689.188610218,3.5,3692.628796606,2,3694.627946586,5,3699.68343192,3702.369822335,5
"245","sub-05","10-Jul-2016 17:31:04",2,20,"pain",5,49,57.9947916666667,3.12023871800011,5,3332.226090738,3707.391998927,3708.893694887,3,3711.832641465,2,3713.832389999,6,3719.889020183,3723.009258901,2
"246","sub-05","10-Jul-2016 17:31:04",2,21,"pain",3,47,45.3723958333333,4.25475526499986,5,3332.226090738,3725.044759293,3726.546491749,2.5,3728.972478644,2,3730.967923546,5,3736.02348763,3740.278242895,2
"247","sub-05","10-Jul-2016 17:31:04",2,22,"pain",1,45,42.173828125,1.73536991099991,65,3332.226090738,3742.297193359,3743.79877614,3,3746.741134337,2,3748.737615932,6,3754.794205947,3756.529575858,5
"248","sub-05","10-Jul-2016 17:31:04",2,23,"pain",4,48,42.736328125,2.35264852099999,95,3332.226090738,3761.551672536,3763.053438397,2,3764.991997312,2,3766.991125867,6,3773.04766643,3775.400314951,5
"249","sub-05","10-Jul-2016 17:31:04",2,24,"pain",2,46,77.1634114583333,1.08464990399989,95,3332.226090738,3780.42259286,3781.924154203,2.5,3784.363712926,2,3786.362488626,6,3792.419049092,3793.503698996,4
"250","sub-05","10-Jul-2016 17:31:04",2,25,"pain",5,49,69.2552083333333,5.75647131300002,5,3332.226090738,3797.524814431,3799.026462933,3.5,3802.466638818,2,3804.46579646,5,3809.5212538,3815.277725113,4
"251","sub-06","08-Jul-2016 16:02:25",1,1,"vision",4,0.725,48.0709635416667,3.51999087700005,35,616.684497936,616.720926558,618.22248647,2,620.191346158,2,622.193684599,5,627.199638564,630.719629441,2
"252","sub-06","08-Jul-2016 16:02:25",1,2,"vision",2,0.275,35.6829427083333,4.9053978039999,95,616.684497936,632.755162595,634.256815815,2.5,636.742895003,2,638.74519638,5,643.733956408,648.639354212,5
"253","sub-06","08-Jul-2016 16:02:25",1,3,"vision",5,0.95,91.4375,3.337066499,95,616.684497936,653.661562053,655.163247485,2,657.16546256,2,659.167742806,5,664.156457382,667.493523881,4
"254","sub-06","08-Jul-2016 16:02:25",1,4,"vision",3,0.5,14.9615885416667,2.352608068,35,616.684497936,671.514682815,673.016367252,2.5,675.519043287,2,677.521325662,6,683.511147493,685.863755561,3
"255","sub-06","08-Jul-2016 16:02:25",1,5,"vision",3,0.5,11.826171875,1.66861502200004,35,616.684497936,688.883751418,690.385521059,2,692.387745486,2,694.389945832,6,700.379748405,702.048363427,3
"256","sub-06","08-Jul-2016 16:02:25",1,6,"vision",3,0.5,16.1888020833333,3.80429865399992,5,616.684497936,705.068275428,706.570040459,3.5,710.073793771,2,712.076003633,5,717.064911797,720.869210451,3
"257","sub-06","08-Jul-2016 16:02:25",1,7,"vision",5,0.95,93.9934895833333,3.25366018299997,95,616.684497936,723.889119286,725.390727523,3.5,728.894674809,2,730.896765273,6,736.88670941,740.140369593,4
"258","sub-06","08-Jul-2016 16:02:25",1,8,"vision",3,0.5,31.7591145833333,4.27141051499996,65,616.684497936,744.161489611,745.663143164,3,748.666552768,2,750.668692672,5,755.657473771,759.928884286,3
"259","sub-06","08-Jul-2016 16:02:25",1,9,"vision",1,0.05,3.07356770833333,2.85327309299998,5,616.684497936,762.948916066,764.450578251,2,766.452654755,2,768.454984652,5,773.443669925,776.296943018,4
"260","sub-06","08-Jul-2016 16:02:25",1,10,"vision",1,0.05,3.21809895833333,4.45500402699997,95,616.684497936,780.317956822,781.819727553,2,783.821819904,2,785.824150211,6,791.814038613,796.26904264,5
"261","sub-06","08-Jul-2016 16:02:25",1,11,"vision",3,0.5,45.2005208333333,2.55294492400003,65,616.684497936,801.291127645,802.792876498,3,805.779385163,2,807.781696513,6,813.788217111,816.341162035,3
"262","sub-06","08-Jul-2016 16:02:25",1,12,"vision",5,0.95,96.6966145833333,1.61840476500004,65,616.684497936,819.361035386,820.862717336,2.5,823.365565814,2,825.367769623,6,831.357669204,832.976073969,4
"263","sub-06","08-Jul-2016 16:02:25",1,13,"vision",5,0.95,92.3736979166667,2.23586038999997,65,616.684497936,836.997243903,838.498950789,2.5,841.001576023,2,843.003804355,6,848.993780516,851.229640906,4
"264","sub-06","08-Jul-2016 16:02:25",1,14,"vision",4,0.725,29.3756510416667,4.35472335899999,5,616.684497936,855.250711531,856.752395897,3.5,860.256236394,2,862.258380397,5,867.24726381,871.601987169,3
"265","sub-06","08-Jul-2016 16:02:25",1,15,"vision",2,0.275,16.2291666666667,2.36931355399997,35,616.684497936,874.622085563,876.12377152,2,878.125857184,2,880.128072651,6,886.118078178,888.487391732,2
"266","sub-06","08-Jul-2016 16:02:25",1,16,"vision",5,0.95,72.8860677083333,3.30370388200004,65,616.684497936,890.522996035,892.02460975,3,895.011198744,2,897.013393818,6,903.003374085,906.307077967,2
"267","sub-06","08-Jul-2016 16:02:25",1,17,"vision",2,0.275,19.0182291666667,4.05462849699995,95,616.684497936,908.342611355,909.844293279,2.5,912.330385223,2,914.332589343,5,919.321292112,923.375920609,4
"268","sub-06","08-Jul-2016 16:02:25",1,18,"vision",4,0.725,56.240234375,1.86881521999999,35,616.684497936,927.397015967,928.898632149,2.5,931.401390355,2,933.403621793,5,938.392384588,940.261199808,2
"269","sub-06","08-Jul-2016 16:02:25",1,19,"vision",1,0.05,2.47721354166667,3.15362654099999,5,616.684497936,942.296755721,943.79844358,3,946.785065208,2,948.787266435,5,953.775953097,956.929579638,2
"270","sub-06","08-Jul-2016 16:02:25",1,20,"vision",1,0.05,4.28971354166667,4.55517005499996,95,616.684497936,958.948451046,960.450135641,3,963.453334703,2,965.455652657,5,970.44436047,974.999530525,5
"271","sub-06","08-Jul-2016 16:02:25",1,21,"vision",4,0.725,71.947265625,3.63739234799993,35,616.684497936,980.021611951,981.52338267,3.5,985.027257378,2,987.029529042,5,992.018249609,995.655641957,4
"272","sub-06","08-Jul-2016 16:02:25",1,22,"vision",2,0.275,55.005859375,2.81968393299996,65,616.684497936,999.676633585,1001.178395986,3.5,1004.682267535,2,1006.684396198,6,1012.674430712,1015.494114645,4
"273","sub-06","08-Jul-2016 16:02:25",1,23,"vision",4,0.725,65.681640625,3.27038698000001,65,616.684497936,1019.515278928,1021.016951702,2.5,1023.519731031,2,1025.521846793,6,1031.511757335,1034.782144315,2
"274","sub-06","08-Jul-2016 16:02:25",1,24,"vision",1,0.05,15.072265625,3.2537262960002,95,616.684497936,1036.801049852,1038.302658665,2.5,1040.805379317,2,1042.807663279,5,1047.796361389,1051.050087685,2
"275","sub-06","08-Jul-2016 16:02:25",1,25,"vision",2,0.275,30.6569010416667,3.00342905699995,5,616.684497936,1053.085587345,1054.58720473,3,1057.57388131,2,1059.576146741,6,1065.565989164,1068.569418221,3
"276","sub-06","08-Jul-2016 16:02:25",2,1,"pain",5,49,81.2532552083333,5.83971771000006,35,1089.106733265,1089.125461027,1090.62708629,3.5,1094.073816726,2,1096.082991641,6,1102.106368065,1107.946085775,3
"277","sub-06","08-Jul-2016 16:02:25",2,2,"pain",3,47,37.7825520833333,3.05344854999998,95,1089.106733265,1110.966195881,1112.46773368,3.5,1115.908004338,2,1117.907069425,5,1122.962704393,1126.016152943,2
"278","sub-06","08-Jul-2016 16:02:25",2,3,"pain",1,45,40.1940104166667,2.95338848400002,95,1089.106733265,1128.051629139,1129.553371167,2,1131.479362131,2,1133.474326237,6,1139.530908897,1142.484297381,4
"279","sub-06","08-Jul-2016 16:02:25",2,4,"pain",3,47,45.4055989583333,3.03685583699985,35,1089.106733265,1146.505373879,1148.006937346,2,1149.947810751,2,1151.944717677,5,1157.000143876,1160.036999713,5
"280","sub-06","08-Jul-2016 16:02:25",2,5,"pain",4,48,49.3528645833333,4.63843272999998,35,1089.106733265,1165.059247195,1166.560867434,2,1168.498888127,2,1170.4985358,6,1176.555158694,1181.193591424,3
"281","sub-06","08-Jul-2016 16:02:25",2,6,"pain",3,47,41.7369791666667,2.68642066500001,5,1089.106733265,1184.213556849,1185.715310413,2,1187.655651238,2,1189.653122747,5,1194.708466979,1197.394887644,4
"282","sub-06","08-Jul-2016 16:02:25",2,7,"pain",1,45,10.4427083333333,2.06892719100006,35,1089.106733265,1201.41594634,1202.917559965,2.5,1205.357921334,2,1207.355755324,5,1212.411393631,1214.480320822,5
"283","sub-06","08-Jul-2016 16:02:25",2,8,"pain",2,46,24.001953125,5.52269842999999,5,1089.106733265,1219.502480349,1221.004175608,2,1222.942613115,2,1224.941860573,6,1230.998569292,1236.521267722,2
"284","sub-06","08-Jul-2016 16:02:25",2,9,"pain",3,47,48.4661458333333,7.50840827100001,65,1089.106733265,1238.556953861,1240.05872149,3.5,1243.484404439,2,1245.481144077,6,1251.537828065,1259.046236336,4
"285","sub-06","08-Jul-2016 16:02:25",2,10,"pain",1,45,22.5,4.50501570300003,35,1089.106733265,1263.067212177,1264.56899245,3,1267.508539447,2,1269.507692032,5,1274.563300803,1279.068316506,2
"286","sub-06","08-Jul-2016 16:02:25",2,11,"pain",5,49,28.63671875,4.68864067799996,5,1089.106733265,1281.103772804,1282.605550081,2.5,1285.031178991,2,1287.026980693,6,1293.083649597,1297.772290275,2
"287","sub-06","08-Jul-2016 16:02:25",2,12,"pain",2,46,13.80078125,2.41946866400008,65,1089.106733265,1299.807866061,1301.309554403,3.5,1304.735526431,2,1306.732181013,6,1312.788722348,1315.208191012,4
"288","sub-06","08-Jul-2016 16:02:25",2,13,"pain",5,49,62.6412760416667,6.84094707700001,35,1089.106733265,1319.229203735,1320.730945392,2.5,1323.169390436,2,1325.169175676,5,1330.224701359,1337.065648436,5
"289","sub-06","08-Jul-2016 16:02:25",2,14,"pain",1,45,10.5533854166667,5.856518779,5,1089.106733265,1342.087731721,1343.589504435,3,1346.527823339,2,1348.528278926,5,1353.58381121,1359.440329989,3
"290","sub-06","08-Jul-2016 16:02:25",2,15,"pain",5,49,78.1048177083333,3.28692862399998,5,1089.106733265,1362.460334495,1363.961860277,3.5,1367.403278058,2,1369.401203907,6,1375.45791758,1378.744846204,3
"291","sub-06","08-Jul-2016 16:02:25",2,16,"pain",1,45,11.9296875,6.25689143900013,95,1089.106733265,1381.764919058,1383.266520197,3,1386.207945869,2,1388.205387693,5,1393.260908223,1399.517799662,2
"292","sub-06","08-Jul-2016 16:02:25",2,17,"pain",2,46,23.1328125,2.03572284100005,5,1089.106733265,1401.553447585,1403.054988667,3,1405.98106591,2,1407.977104364,6,1414.033739989,1416.06946283,5
"293","sub-06","08-Jul-2016 16:02:25",2,18,"pain",2,46,38.015625,3.12015932200006,5,1089.106733265,1421.091642471,1422.593327148,3.5,1426.033313925,2,1428.032659552,5,1433.088117589,1436.208276911,5
"294","sub-06","08-Jul-2016 16:02:25",2,19,"pain",3,47,48.3919270833333,2.3192373039999,5,1089.106733265,1441.230499717,1442.732205054,3.5,1446.170273945,2,1448.17146459,6,1454.228139127,1456.547376431,5
"295","sub-06","08-Jul-2016 16:02:25",2,20,"pain",4,48,51.6217447916667,3.75417278399982,95,1089.106733265,1461.569646732,1463.071314529,3.5,1466.509502358,2,1468.510647244,5,1473.566096078,1477.320268862,5
"296","sub-06","08-Jul-2016 16:02:25",2,21,"pain",5,49,69.771484375,3.17030913899998,65,1089.106733265,1482.34260307,1483.844150899,3,1486.781857104,2,1488.782933243,5,1493.838459277,1497.008768416,5
"297","sub-06","08-Jul-2016 16:02:25",2,22,"pain",4,48,53.4420572916667,2.41947166199998,65,1089.106733265,1502.030845534,1503.532543393,2.5,1505.971945278,2,1507.970849482,6,1514.027410547,1516.446882209,4
"298","sub-06","08-Jul-2016 16:02:25",2,23,"pain",4,48,41.970703125,3.90444194899987,65,1089.106733265,1520.467942089,1521.969602759,2,1523.90872278,2,1525.90723144,5,1530.962750416,1534.867192365,2
"299","sub-06","08-Jul-2016 16:02:25",2,24,"pain",2,46,6.79036458333333,1.88555648200008,65,1089.106733265,1536.902649716,1538.404468883,2.5,1540.830600836,2,1542.825868497,6,1548.882516252,1550.768072734,3
"300","sub-06","08-Jul-2016 16:02:25",2,25,"pain",4,48,54.7141927083333,5.20585764399993,95,1089.106733265,1553.78803546,1555.289720513,3,1558.23064531,2,1560.228511452,6,1566.285071272,1571.490928916,3
"301","sub-08","14-Jul-2016 17:54:11",1,1,"vision",4,0.725,65.400390625,2.80315904400049,35,4548.410341751,4548.462392471,4549.963922301,2,4551.916229929,2,4553.918393175,6,4559.908281759,4562.711440803,3
"302","sub-08","14-Jul-2016 17:54:11",1,2,"vision",1,0.05,55.904296875,1.90222171099958,65,4548.410341751,4565.74808226,4567.249739353,2,4569.235219008,2,4571.237530851,5,4576.226222878,4578.128444589,4
"303","sub-08","14-Jul-2016 17:54:11",1,3,"vision",3,0.5,68.5963541666667,3.03679072199975,95,4548.410341751,4582.14952955,4583.651195516,3.5,4587.155066495,2,4589.157269503,5,4594.146006154,4597.182796876,3
"304","sub-08","14-Jul-2016 17:54:11",1,4,"vision",2,0.275,57.8567708333333,3.87100385900067,5,4548.410341751,4600.202693676,4601.704447326,3.5,4605.208315274,2,4607.210520527,6,4613.200403909,4617.071407768,2
"305","sub-08","14-Jul-2016 17:54:11",1,5,"vision",5,0.95,83.2415364583333,1.88551976099916,65,4548.410341751,4619.090306129,4620.591946361,2.5,4623.094611499,2,4625.096931864,5,4630.085642521,4631.971162282,5
"306","sub-08","14-Jul-2016 17:54:11",1,6,"vision",1,0.05,43.2076822916667,2.30261645799965,5,4548.410341751,4636.993262587,4638.495083782,2,4640.497257077,2,4642.499369239,6,4648.489332078,4650.791948536,2
"307","sub-08","14-Jul-2016 17:54:11",1,7,"vision",1,0.05,48.1868489583333,3.30379550199996,35,4548.410341751,4652.810720015,4654.312400378,2.5,4656.815315438,2,4658.8174609,6,4664.807290387,4668.111085889,2
"308","sub-08","14-Jul-2016 17:54:11",1,8,"vision",4,0.725,59.4915364583333,3.80426917000023,35,4548.410341751,4670.129910797,4671.631591253,3.5,4675.135387344,2,4677.137590191,6,4683.127536702,4686.931805872,2
"309","sub-08","14-Jul-2016 17:54:11",1,9,"vision",4,0.725,62.9622395833333,2.65295177799999,95,4548.410341751,4688.967359291,4690.469048959,2,4692.45456793,2,4694.456660538,5,4699.445509413,4702.098461191,5
"310","sub-08","14-Jul-2016 17:54:11",1,10,"vision",2,0.275,48.8841145833333,1.25137840099978,95,4548.410341751,4707.120653511,4708.622396733,3,4711.625758731,2,4713.627842163,6,4719.617742654,4720.869121055,5
"311","sub-08","14-Jul-2016 17:54:11",1,11,"vision",5,0.95,80.48046875,1.435040415,5,4548.410341751,4725.891319468,4727.393031824,2.5,4729.895875682,2,4731.898115665,5,4736.886793052,4738.321833467,4
"312","sub-08","14-Jul-2016 17:54:11",1,12,"vision",4,0.725,83.6399739583333,4.45486238400008,5,4548.410341751,4742.342847101,4743.844510153,2,4745.846803884,2,4747.849018318,5,4752.837788946,4757.29265133,5
"313","sub-08","14-Jul-2016 17:54:11",1,13,"vision",5,0.95,86.6373697916667,2.95338851899942,35,4548.410341751,4762.314879166,4763.816672846,2.5,4766.319318274,2,4768.321514787,6,4774.311410944,4777.264799463,5
"314","sub-08","14-Jul-2016 17:54:11",1,14,"vision",3,0.5,51.4244791666667,3.35382407399993,35,4548.410341751,4782.286893076,4783.788711699,2,4785.790886645,2,4787.793000436,5,4792.78179553,4796.135619604,2
"315","sub-08","14-Jul-2016 17:54:11",1,15,"vision",5,0.95,90.1940104166667,1.68526215699967,65,4548.410341751,4798.154417406,4799.65617053,2.5,4802.158930504,2,4804.161075442,6,4810.151010642,4811.836272799,2
"316","sub-08","14-Jul-2016 17:54:11",1,16,"vision",3,0.5,66.005859375,4.12134800100011,65,4548.410341751,4813.855138627,4815.356797509,3.5,4818.860609343,2,4820.862950446,6,4826.852705466,4830.974053467,4
"317","sub-08","14-Jul-2016 17:54:11",1,17,"vision",3,0.5,62.9596354166667,3.70424132899916,35,4548.410341751,4834.995137788,4836.496822901,3.5,4840.000690242,2,4842.002885697,5,4846.991589623,4850.695830952,3
"318","sub-08","14-Jul-2016 17:54:11",1,18,"vision",1,0.05,32.9114583333333,2.98672687399994,65,4548.410341751,4853.715712476,4855.217385451,2.5,4857.720278723,2,4859.722439683,6,4865.712285809,4868.699012683,3
"319","sub-08","14-Jul-2016 17:54:11",1,19,"vision",2,0.275,45.6985677083333,2.10246089100019,5,4548.410341751,4871.718889356,4873.220660853,2,4875.222770369,2,4877.224997658,5,4882.213782916,4884.316243807,5
"320","sub-08","14-Jul-2016 17:54:11",1,20,"vision",4,0.725,48.1751302083333,3.4538511159999,95,4548.410341751,4889.338328952,4890.84010164,3,4893.84344236,2,4895.845623242,6,4901.835523936,4905.289375052,5
"321","sub-08","14-Jul-2016 17:54:11",1,21,"vision",2,0.275,42.8665364583333,4.23802257900024,95,4548.410341751,4910.311563389,4911.813276897,3,4914.816486519,2,4916.818681357,5,4921.807559043,4926.045581622,4
"322","sub-08","14-Jul-2016 17:54:11",1,22,"vision",5,0.95,65,2.41945753000073,65,4548.410341751,4930.066595568,4931.568410941,3,4934.571679101,2,4936.573890683,6,4942.563723185,4944.983180715,3
"323","sub-08","14-Jul-2016 17:54:11",1,23,"vision",2,0.275,37.3125,3.13691219800057,5,4548.410341751,4948.003193784,4949.504708412,2.5,4952.007634015,2,4954.009791716,5,4958.998482704,4962.135394902,3
"324","sub-08","14-Jul-2016 17:54:11",1,24,"vision",3,0.5,46.7552083333333,4.38827683199997,95,4548.410341751,4965.155307371,4966.656999721,3.5,4970.160946501,2,4972.163173464,5,4977.151858049,4981.540134881,3
"325","sub-08","14-Jul-2016 17:54:11",1,25,"vision",1,0.05,15.0149739583333,2.68642862600063,5,4548.410341751,4984.560152487,4986.061818891,3,4989.065134583,2,4991.067376275,6,4997.057152312,4999.743580938,2
"326","sub-08","14-Jul-2016 17:54:11",2,1,"pain",4,48,38.888671875,5.23916463500063,35,5010.253136062,5010.255176356,5011.756836259,3.5,5015.219684451,2,5017.21282916,5,5022.251625667,5027.490790302,5
"327","sub-08","14-Jul-2016 17:54:11",2,2,"pain",3,47,30.9986979166667,3.57062158500048,65,5010.253136062,5032.513060322,5034.014722291,2,5035.952973236,2,5037.952422231,6,5044.009000163,5047.579621748,2
"328","sub-08","14-Jul-2016 17:54:11",2,3,"pain",4,48,33.830078125,3.07012200999998,5,5010.253136062,5049.615184103,5051.116924176,3.5,5054.542760769,2,5056.539460408,5,5061.595086055,5064.665208065,4
"329","sub-08","14-Jul-2016 17:54:11",2,4,"pain",2,46,24.5885416666667,3.0534960670002,5,5010.253136062,5068.686326306,5070.187974281,2,5072.127897257,2,5074.125661682,5,5079.181101478,5082.234597545,3
"330","sub-08","14-Jul-2016 17:54:11",2,5,"pain",2,46,25.4381510416667,3.52068943799986,65,5010.253136062,5085.254568072,5086.756252982,2.5,5089.197706572,2,5091.194445056,6,5097.251021176,5100.771710614,2
"331","sub-08","14-Jul-2016 17:54:11",2,6,"pain",3,47,12.41015625,2.81990074799978,65,5010.253136062,5102.790489414,5104.292268712,2.5,5106.734132352,2,5108.730500088,5,5113.785944848,5116.605845596,5
"332","sub-08","14-Jul-2016 17:54:11",2,7,"pain",1,45,38.6106770833333,1.93560186400009,65,5010.253136062,5121.627955623,5123.12971471,2,5125.068116478,2,5127.067382871,5,5132.12283042,5134.058432284,2
"333","sub-08","14-Jul-2016 17:54:11",2,8,"pain",5,49,28.3470052083333,1.71857129900036,5,5010.253136062,5136.093918413,5137.595665798,3,5140.521558572,2,5142.51777446,6,5148.574367784,5150.292939083,3
"334","sub-08","14-Jul-2016 17:54:11",2,9,"pain",4,48,20.1712239583333,2.36942889500006,5,5010.253136062,5153.312977339,5154.81466351,3.5,5158.254727007,2,5160.253995618,6,5166.310544766,5168.679973661,5
"335","sub-08","14-Jul-2016 17:54:11",2,10,"pain",2,46,10.8502604166667,3.95446722999986,95,5010.253136062,5173.702178441,5175.203823816,2.5,5177.642484543,2,5179.642059893,6,5185.698610192,5189.653077422,3
"336","sub-08","14-Jul-2016 17:54:11",2,11,"pain",4,48,21.5520833333333,2.61974828000075,35,5010.253136062,5192.673068709,5194.174762371,3,5197.114290736,2,5199.113461433,6,5205.1700918,5207.78984008,3
"337","sub-08","14-Jul-2016 17:54:11",2,12,"pain",5,49,72.24609375,1.80199278100008,95,5010.253136062,5210.809678286,5212.311439962,2.5,5214.751740775,2,5216.749658413,5,5221.805202673,5223.607195454,3
"338","sub-08","14-Jul-2016 17:54:11",2,13,"pain",1,45,12.9342447916667,1.61857779699949,35,5010.253136062,5226.627225783,5228.128879657,3.5,5231.57069802,2,5233.568127882,6,5239.624771146,5241.243348943,4
"339","sub-08","14-Jul-2016 17:54:11",2,14,"pain",5,49,34.0677083333333,2.86996492100025,95,5010.253136062,5245.264438536,5246.766110219,3,5249.705711477,2,5251.704897575,5,5256.760336746,5259.630301667,4
"340","sub-08","14-Jul-2016 17:54:11",2,15,"pain",3,47,33.6236979166667,3.30377426999985,35,5010.253136062,5263.651293154,5265.153058452,2.5,5267.592597847,2,5269.591299952,5,5274.646738622,5277.950512892,5
"341","sub-08","14-Jul-2016 17:54:11",2,16,"pain",3,47,11.6041666666667,2.43623303200002,5,5010.253136062,5282.972705325,5284.474377025,2,5286.41203984,2,5288.411973566,5,5293.467501579,5295.903734611,2
"342","sub-08","14-Jul-2016 17:54:11",2,17,"pain",5,49,22.3509114583333,1.86888479299978,95,5010.253136062,5297.939239875,5299.440896195,3,5302.366499122,2,5304.36295408,5,5309.418403583,5311.287288376,3
"343","sub-08","14-Jul-2016 17:54:11",2,18,"pain",2,46,13.2311197916667,3.17030496499956,35,5010.253136062,5314.307175047,5315.808987343,2,5317.750065735,2,5319.746621049,5,5324.802067429,5327.972372394,4
"344","sub-08","14-Jul-2016 17:54:11",2,19,"pain",2,46,12.3958333333333,1.50180278799962,65,5010.253136062,5331.993488135,5333.495122329,3,5336.43470544,2,5338.433841281,6,5344.490456386,5345.992259174,4
"345","sub-08","14-Jul-2016 17:54:11",2,20,"pain",1,45,13.4869791666667,1.93557633399996,95,5010.253136062,5350.013233167,5351.515012402,2,5353.455642071,2,5355.452603069,6,5361.50926146,5363.444837794,5
"346","sub-08","14-Jul-2016 17:54:11",2,21,"pain",4,48,19.470703125,3.87097886100037,65,5010.253136062,5368.466936484,5369.968775622,3.5,5373.406744214,2,5375.408030542,5,5380.463569294,5384.334548155,4
"347","sub-08","14-Jul-2016 17:54:11",2,22,"pain",5,49,34.8235677083333,3.27035773199987,65,5010.253136062,5388.355622905,5389.857343912,3.5,5393.297377778,2,5395.296647418,6,5401.353276902,5404.623634634,4
"348","sub-08","14-Jul-2016 17:54:11",2,23,"pain",1,45,10.3932291666667,4.2714020429994,35,5010.253136062,5408.644589913,5410.146351196,3.5,5413.586411215,2,5415.585691779,6,5421.642350101,5425.913752144,4
"349","sub-08","14-Jul-2016 17:54:11",2,24,"pain",1,45,7.60677083333333,2.15246448400012,5,5010.253136062,5429.934745306,5431.436512462,2.5,5433.875442766,2,5435.874663433,6,5441.931337221,5444.083801705,4
"350","sub-08","14-Jul-2016 17:54:11",2,25,"pain",3,47,13.1028645833333,1.96897105300013,95,5010.253136062,5448.104873738,5449.606487281,3,5452.546063846,2,5454.545254425,5,5459.600783133,5461.569754186,2
"351","sub-09","14-Jul-2016 18:55:00",1,1,"vision",2,0.275,20.0052083333333,14.5661667090008,5,8236.732213455,8236.784689607,8238.286356982,2.5,8240.739076038,2,8242.741354845,5,8247.730097926,8262.296264635,4
"352","sub-09","14-Jul-2016 18:55:00",1,2,"vision",5,0.95,93.912109375,25.3280774470004,35,8236.732213455,8266.317338663,8267.81902102,3.5,8271.322896214,2,8273.325093959,5,8278.313798737,8303.641876184,2
"353","sub-09","14-Jul-2016 18:55:00",1,3,"vision",3,0.5,29.3697916666667,3.2370478519988,5,8236.732213455,8305.660740567,8307.162440726,2,8309.164564646,2,8311.16676184,5,8316.155546952,8319.392594804,4
"354","sub-09","14-Jul-2016 18:55:00",1,4,"vision",3,0.5,33.8411458333333,4.05457981799918,35,8236.732213455,8323.413674234,8324.915335316,2.5,8327.418141831,2,8329.42023238,5,8334.409047711,8338.463627529,5
"355","sub-09","14-Jul-2016 18:55:00",1,5,"vision",1,0.05,16.9264322916667,3.92095961599989,95,8236.732213455,8343.485806688,8344.987409637,3,8347.990821667,2,8349.993022604,6,8355.982881944,8359.90384156,4
"356","sub-09","14-Jul-2016 18:55:00",1,6,"vision",1,0.05,10.1979166666667,2.92000056600045,95,8236.732213455,8363.92493681,8365.426701305,3,8368.429956618,2,8370.432225512,6,8376.422065189,8379.342065755,5
"357","sub-09","14-Jul-2016 18:55:00",1,7,"vision",1,0.05,6.47395833333333,2.81982249700013,35,8236.732213455,8384.364148769,8385.865925106,3,8388.869166667,2,8390.87145623,6,8396.861351791,8399.681174288,2
"358","sub-09","14-Jul-2016 18:55:00",1,8,"vision",3,0.5,59.1888020833333,3.65414979299931,95,8236.732213455,8401.700059948,8403.201653599,3.5,8406.705599692,2,8408.707802905,6,8414.697618524,8418.351768317,3
"359","sub-09","14-Jul-2016 18:55:00",1,9,"vision",1,0.05,7.69140625,2.63638664700011,5,8236.732213455,8421.371730035,8422.873417625,2,8424.875550365,2,8426.877831102,6,8432.867654372,8435.504041019,5
"360","sub-09","14-Jul-2016 18:55:00",1,10,"vision",5,0.95,94.6028645833333,4.78864345799957,5,8236.732213455,8440.52623279,8442.02792492,3,8445.031207387,2,8447.033265253,6,8453.023310904,8457.811954362,3
"361","sub-09","14-Jul-2016 18:55:00",1,11,"vision",5,0.95,93.8177083333333,3.85427907899975,35,8236.732213455,8460.831964901,8462.333620093,3.5,8465.837497818,2,8467.839663994,5,8472.82851349,8476.682792569,2
"362","sub-09","14-Jul-2016 18:55:00",1,12,"vision",4,0.725,48.1888020833333,2.63635678600076,35,8236.732213455,8478.718268991,8480.220021318,2.5,8482.706098699,2,8484.708319322,5,8489.697023379,8492.333380165,4
"363","sub-09","14-Jul-2016 18:55:00",1,13,"vision",4,0.725,39.6783854166667,3.52067674300088,95,8236.732213455,8496.354374934,8497.856142187,2.5,8500.358801403,2,8502.361113277,5,8507.349826389,8510.870503132,3
"364","sub-09","14-Jul-2016 18:55:00",1,14,"vision",5,0.95,94.0540364583333,3.4539149509983,65,8236.732213455,8513.890471287,8515.392155286,3,8518.395408444,2,8520.397678376,5,8525.386421319,8528.84033627,5
"365","sub-09","14-Jul-2016 18:55:00",1,15,"vision",5,0.95,93.5403645833333,2.51958489900062,65,8236.732213455,8533.862523442,8535.364240416,2,8537.366337152,2,8539.36860551,5,8544.357309182,8546.876894081,5
"366","sub-09","14-Jul-2016 18:55:00",1,16,"vision",4,0.725,42.60546875,3.40380537199962,65,8236.732213455,8551.898991973,8553.400753533,2,8555.402969521,2,8557.405172312,6,8563.395066957,8566.798872329,2
"367","sub-09","14-Jul-2016 18:55:00",1,17,"vision",3,0.5,32.3671875,2.92001781200088,65,8236.732213455,8568.834456304,8570.336136339,2.5,8572.822192375,2,8574.824396411,5,8579.813100353,8582.733118165,5
"368","sub-09","14-Jul-2016 18:55:00",1,18,"vision",3,0.5,32.779296875,2.48619548200077,5,8236.732213455,8587.755305506,8589.256981997,2.5,8591.759744847,2,8593.761982826,6,8599.751774736,8602.237970218,3
"369","sub-09","14-Jul-2016 18:55:00",1,19,"vision",4,0.725,45.4342447916667,3.53738302000056,35,8236.732213455,8605.257856272,8606.759624723,2,8608.761839046,2,8610.764041623,6,8616.753852064,8620.291235084,4
"370","sub-09","14-Jul-2016 18:55:00",1,20,"vision",2,0.275,26.849609375,2.03572181500022,65,8236.732213455,8624.312309943,8625.813950143,3,8628.817302946,2,8630.819425082,6,8636.809310174,8638.845031989,3
"371","sub-09","14-Jul-2016 18:55:00",1,21,"vision",2,0.275,29.9739583333333,2.97002126999905,35,8236.732213455,8641.864995121,8643.366676029,3.5,8646.870440656,2,8648.872754752,6,8654.86261369,8657.83263496,2
"372","sub-09","14-Jul-2016 18:55:00",1,22,"vision",4,0.725,56.9602864583333,3.27038441399964,65,8236.732213455,8659.868142524,8661.369779123,3.5,8664.856975994,2,8666.859260899,5,8671.848003953,8675.118388367,5
"373","sub-09","14-Jul-2016 18:55:00",1,23,"vision",2,0.275,43.255859375,3.97117947600054,95,8236.732213455,8680.140482388,8681.642236432,3.5,8685.146111451,2,8687.148230991,5,8692.137015923,8696.108195399,4
"374","sub-09","14-Jul-2016 18:55:00",1,24,"vision",2,0.275,37.7962239583333,2.70306292100031,5,8236.732213455,8700.129197034,8701.630840382,3,8704.634207822,2,8706.636493205,5,8711.62520176,8714.328264681,2
"375","sub-09","14-Jul-2016 18:55:00",1,25,"vision",1,0.05,10.2994791666667,4.22131570800047,95,8236.732213455,8716.363763454,8717.865533355,2.5,8720.351611267,2,8722.353816449,6,8728.343689484,8732.565005192,2
"376","sub-09","14-Jul-2016 18:55:00",2,1,"pain",2,46,42.0455729166667,4.08795149000071,35,8741.990107573,8741.992107823,8743.493805021,2.5,8745.946915278,2,8747.948721551,5,8752.987507351,8757.075458841,2
"377","sub-09","14-Jul-2016 18:55:00",2,2,"pain",1,45,22.5670572916667,4.03791792999982,95,8741.990107573,8759.094287969,8760.595923127,3.5,8764.038165453,2,8766.035348887,6,8772.091897288,8776.129815218,4
"378","sub-09","14-Jul-2016 18:55:00",2,3,"pain",4,48,71.05859375,2.35270707800009,95,8741.990107573,8780.150889476,8781.652483699,2,8783.593279434,2,8785.590248052,5,8790.645683491,8792.998390569,3
"379","sub-09","14-Jul-2016 18:55:00",2,4,"pain",3,47,19.3756510416667,2.66970700400088,65,8741.990107573,8796.018392666,8797.520019064,3,8800.461488812,2,8802.458858129,5,8807.514317311,8810.184024315,2
"380","sub-09","14-Jul-2016 18:55:00",2,5,"pain",2,46,12.7141927083333,3.77086528499967,65,8741.990107573,8812.219551065,8813.721329378,2.5,8816.147602629,2,8818.142822652,6,8824.199398872,8827.970264157,5
"381","sub-09","14-Jul-2016 18:55:00",2,6,"pain",5,49,62.181640625,3.58739343500019,95,8741.990107573,8832.992518938,8834.494203213,2.5,8836.932984427,2,8838.932437571,5,8843.987878585,8847.57527202,4
"382","sub-09","14-Jul-2016 18:55:00",2,7,"pain",5,49,61.9407552083333,2.60291586200037,95,8741.990107573,8851.596376086,8853.098061608,3.5,8856.538250641,2,8858.537310188,6,8864.593952996,8867.196868858,2
"383","sub-09","14-Jul-2016 18:55:00",2,8,"pain",2,46,16.6158854166667,6.15691027399953,65,8741.990107573,8869.215765655,8870.717501643,3.5,8874.159736459,2,8876.156756438,5,8881.212294356,8887.36920463,4
"384","sub-09","14-Jul-2016 18:55:00",2,9,"pain",4,48,44.2708333333333,8.45946189799906,5,8741.990107573,8891.390197987,8892.89195069,3.5,8896.332080792,2,8898.331297513,5,8903.386745407,8911.846207305,3
"385","sub-09","14-Jul-2016 18:55:00",2,10,"pain",3,47,15.2467447916667,5.00559860800058,5,8741.990107573,8914.866110492,8916.367865879,2.5,8918.808955684,2,8920.806065,5,8925.861596765,8930.867195373,3
"386","sub-09","14-Jul-2016 18:55:00",2,11,"pain",4,48,39.9205729166667,7.55839904300046,5,8741.990107573,8933.887098896,8935.388869671,3.5,8938.829060018,2,8940.828181831,5,8945.883630179,8953.442029222,4
"387","sub-09","14-Jul-2016 18:55:00",2,12,"pain",1,45,13.9837239583333,3.38715520599908,35,8741.990107573,8957.463218195,8958.964857226,2.5,8961.403914499,2,8963.402996841,6,8969.459702828,8972.846858034,4
"388","sub-09","14-Jul-2016 18:55:00",2,13,"pain",3,47,12.8860677083333,3.5540288810007,5,8741.990107573,8976.867830325,8978.369571157,2,8980.310034054,2,8982.307200034,6,8988.363860374,8991.917889255,5
"389","sub-09","14-Jul-2016 18:55:00",2,14,"pain",1,45,3.36328125,2.23587449499973,5,8741.990107573,8996.939975698,8998.441787005,3,9001.380747414,2,9003.380526746,6,9009.437129753,9011.673004248,3
"390","sub-09","14-Jul-2016 18:55:00",2,15,"pain",5,49,87.517578125,5.37271928599876,95,8741.990107573,9014.692924889,9016.194584837,2,9018.136070607,2,9020.132337273,6,9026.188897178,9031.561616464,5
"391","sub-09","14-Jul-2016 18:55:00",2,16,"pain",4,48,50.6471354166667,3.3037905809997,35,8741.990107573,9036.583833928,9038.085480702,3,9041.023910181,2,9043.024261878,6,9049.080809701,9052.384600282,5
"392","sub-09","14-Jul-2016 18:55:00",2,17,"pain",3,47,29.109375,3.68743503299993,65,8741.990107573,9057.406701918,9058.90846215,3,9061.847423575,2,9063.84722777,5,9068.902779035,9072.590214068,2
"393","sub-09","14-Jul-2016 18:55:00",2,18,"pain",2,46,17.892578125,3.13691085499886,65,8741.990107573,9074.608995178,9076.110804509,3.5,9079.552892921,2,9081.550006734,5,9086.605560484,9089.742471339,3
"394","sub-09","14-Jul-2016 18:55:00",2,19,"pain",5,49,75.9811197916667,4.17141900200113,35,8741.990107573,9092.762396626,9094.264134163,2,9096.205189108,2,9098.201806429,5,9103.25725288,9107.428671882,4
"395","sub-09","14-Jul-2016 18:55:00",2,20,"pain",5,49,83.9609375,4.57183656399866,65,8741.990107573,9111.449636903,9112.95132385,2,9114.89144332,2,9116.889097474,6,9122.945659597,9127.517496161,4
"396","sub-09","14-Jul-2016 18:55:00",2,21,"pain",1,45,6.416015625,2.35272502500084,35,8741.990107573,9131.538484621,9133.040282419,2,9134.980684554,2,9136.977916526,6,9143.034467761,9145.387192786,5
"397","sub-09","14-Jul-2016 18:55:00",2,22,"pain",2,46,4.1875,3.90427164099856,95,8741.990107573,9150.409307097,9151.910944466,3,9154.849909643,2,9156.849840806,6,9162.906483983,9166.810755624,2
"398","sub-09","14-Jul-2016 18:55:00",2,23,"pain",4,48,43.2877604166667,3.48732293800094,65,8741.990107573,9168.846331134,9170.348068687,2.5,9172.774055829,2,9174.76961312,6,9180.826155076,9184.313478014,3
"399","sub-09","14-Jul-2016 18:55:00",2,24,"pain",3,47,33.9205729166667,3.10354602400002,35,8741.990107573,9187.333438686,9188.835137866,3,9191.777068936,2,9193.773889523,6,9199.83046948,9202.934015504,3
"400","sub-09","14-Jul-2016 18:55:00",2,25,"pain",1,45,3.32682291666667,4.98896569899989,5,8741.990107573,9205.953989062,9207.455710578,3.5,9210.897207855,2,9212.895005711,5,9217.950457792,9222.939423491,5
"401","sub-10","15-Jul-2016 18:00:29",1,1,"vision",4,0.725,66.1048177083333,5.33928677899985,95,2003.91204581,2003.947432513,2005.449002203,3.5,2008.919580318,2,2010.92169646,5,2015.91055021,2021.249836989,2
"402","sub-10","15-Jul-2016 18:00:29",1,2,"vision",2,0.275,61.7838541666667,4.07117277200018,65,2003.91204581,2023.285337386,2024.787078261,3.5,2028.274263089,2,2030.276460263,5,2035.265256084,2039.336428856,5
"403","sub-10","15-Jul-2016 18:00:29",1,3,"vision",1,0.05,20.9049479166667,2.93663671900003,65,2003.91204581,2044.358580209,2045.860319477,2,2047.862454733,2,2049.864739579,5,2054.853521536,2057.790158255,3
"404","sub-10","15-Jul-2016 18:00:29",1,4,"vision",2,0.275,47.3541666666667,1.45154187600019,35,2003.91204581,2060.810119481,2062.311803087,2.5,2064.814487481,2,2066.816771666,6,2072.806664961,2074.258206837,3
"405","sub-10","15-Jul-2016 18:00:29",1,5,"vision",4,0.725,85.7955729166667,1.83540410800015,95,2003.91204581,2077.278223326,2078.779981404,2.5,2081.282655178,2,2083.284944896,6,2089.274848751,2091.110252859,5
"406","sub-10","15-Jul-2016 18:00:29",1,6,"vision",3,0.5,78.48828125,1.91880544500009,95,2003.91204581,2096.132351765,2097.63409924,2,2099.636326354,2,2101.638521578,5,2106.627230742,2108.546036187,5
"407","sub-10","15-Jul-2016 18:00:29",1,7,"vision",2,0.275,28.1536458333333,1.40154256200003,65,2003.91204581,2113.568333464,2115.07001622,2,2117.072234493,2,2119.074398975,6,2125.064266868,2126.46580943,2
"408","sub-10","15-Jul-2016 18:00:29",1,8,"vision",3,0.5,38.232421875,3.22026905499979,5,2003.91204581,2128.484724785,2129.986465139,3,2132.989708319,2,2134.992003429,5,2139.980776319,2143.201045374,2
"409","sub-10","15-Jul-2016 18:00:29",1,9,"vision",5,0.95,97.4654947916667,2.169092439,5,2003.91204581,2145.236623656,2146.738283905,3.5,2150.225464253,2,2152.227668709,5,2157.216472029,2159.385564468,3
"410","sub-10","15-Jul-2016 18:00:29",1,10,"vision",4,0.725,76.7604166666667,3.08678190300043,65,2003.91204581,2162.405536412,2163.907220602,3,2166.910559076,2,2168.91273209,6,2174.902642709,2177.989424612,4
"411","sub-10","15-Jul-2016 18:00:29",1,11,"vision",1,0.05,0.970052083333333,1.88546756699998,35,2003.91204581,2182.010537938,2183.512107512,3.5,2187.016055554,2,2189.018258161,5,2194.00704399,2195.892511557,3
"412","sub-10","15-Jul-2016 18:00:29",1,12,"vision",2,0.275,12.0533854166667,1.76865136900005,5,2003.91204581,2198.912395613,2200.41416965,2,2202.416293816,2,2204.418584496,6,2210.408424393,2212.177075762,5
"413","sub-10","15-Jul-2016 18:00:29",1,13,"vision",1,0.05,1.8828125,1.58521102300028,65,2003.91204581,2217.199320671,2218.700924755,2.5,2221.203779112,2,2223.205990704,5,2228.194701866,2229.779912889,5
"414","sub-10","15-Jul-2016 18:00:29",1,14,"vision",1,0.05,1.96223958333333,1.51844000899973,5,2003.91204581,2234.802086954,2236.303762809,2,2238.305857303,2,2240.308178962,6,2246.298032351,2247.81647236,5
"415","sub-10","15-Jul-2016 18:00:29",1,15,"vision",2,0.275,23.37890625,2.55293940699994,5,2003.91204581,2252.838585441,2254.340239974,2.5,2256.843043046,2,2258.845292933,6,2264.835113979,2267.388053386,3
"416","sub-10","15-Jul-2016 18:00:29",1,16,"vision",4,0.725,90.908203125,3.22035883900026,5,2003.91204581,2270.408020667,2271.909752329,3.5,2275.413497347,2,2277.415803763,6,2283.405583677,2286.625942516,4
"417","sub-10","15-Jul-2016 18:00:29",1,17,"vision",3,0.5,71.857421875,2.78649485999995,65,2003.91204581,2290.646938754,2292.14870286,2,2294.150834883,2,2296.153036593,6,2302.142964261,2304.929459121,4
"418","sub-10","15-Jul-2016 18:00:29",1,18,"vision",1,0.05,1.66536458333333,2.35272919300041,95,2003.91204581,2308.950578074,2310.452161065,3,2313.455473725,2,2315.457665581,5,2320.446459129,2322.799188322,5
"419","sub-10","15-Jul-2016 18:00:29",1,19,"vision",3,0.5,56.0944010416667,1.80215060399996,35,2003.91204581,2327.821363541,2329.323044832,3,2332.326373279,2,2334.328591867,5,2339.317251094,2341.119401698,3
"420","sub-10","15-Jul-2016 18:00:29",1,20,"vision",5,0.95,100,1.31820017500013,95,2003.91204581,2344.139369472,2345.641053797,2.5,2348.143812107,2,2350.146029127,5,2355.134779058,2356.452979233,5
"421","sub-10","15-Jul-2016 18:00:29",1,21,"vision",5,0.95,99.6666666666667,3.38711226099986,95,2003.91204581,2361.4751756,2362.976842513,3,2365.980144188,2,2367.982382227,6,2373.972266221,2377.359378482,2
"422","sub-10","15-Jul-2016 18:00:29",1,22,"vision",3,0.5,10.3079427083333,1.8355034440001,5,2003.91204581,2379.378246379,2380.879859998,2.5,2383.382664613,2,2385.384899917,6,2391.374698672,2393.210202116,3
"423","sub-10","15-Jul-2016 18:00:29",1,23,"vision",5,0.95,97.2330729166667,2.60297617600008,65,2003.91204581,2396.230082357,2397.731856085,3,2400.735095851,2,2402.737409575,6,2408.727186828,2411.330163004,4
"424","sub-10","15-Jul-2016 18:00:29",1,24,"vision",5,0.95,96.0813802083333,1.81882456599988,35,2003.91204581,2415.351179537,2416.85296083,3.5,2420.356738118,2,2422.359023581,5,2427.347723367,2429.166547933,3
"425","sub-10","15-Jul-2016 18:00:29",1,25,"vision",4,0.725,86.060546875,2.41935001000002,35,2003.91204581,2432.186539803,2433.688188857,3.5,2437.192067028,2,2439.194268953,6,2445.184079168,2447.603429178,2
"426","sub-10","15-Jul-2016 18:00:29",2,1,"pain",2,46,69.0755208333333,3.75417214300023,5,2497.456465913,2497.458511268,2498.960199377,2.5,2501.412900935,2,2503.415118424,6,2509.455007194,2513.209179337,4
"427","sub-10","15-Jul-2016 18:00:29",2,2,"pain",5,49,83.919921875,3.03672175200018,5,2497.456465913,2517.23032945,2518.73202152,3.5,2522.172108841,2,2524.171259726,6,2530.22799111,2533.264712862,2
"428","sub-10","15-Jul-2016 18:00:29",2,3,"pain",1,45,27.5618489583333,3.42058240599999,35,2497.456465913,2535.283536632,2536.785265071,2.5,2539.227667213,2,2541.223382945,5,2546.278926442,2549.699508848,3
"429","sub-10","15-Jul-2016 18:00:29",2,4,"pain",4,48,68.0631510416667,2.4528281869998,65,2497.456465913,2552.719411003,2554.221167668,3,2557.162320844,2,2559.15995798,5,2564.215402052,2566.668230239,4
"430","sub-10","15-Jul-2016 18:00:29",2,5,"pain",5,49,65.474609375,2.03571132500019,95,2497.456465913,2570.689325289,2572.190902599,2.5,2574.631333448,2,2576.629218516,6,2582.685775295,2584.72148662,2
"431","sub-10","15-Jul-2016 18:00:29",2,6,"pain",1,45,9.63151041666667,1.16810725400001,35,2497.456465913,2586.756937851,2588.258728985,3.5,2591.684406111,2,2593.681341591,6,2599.737902575,2600.906009829,4
"432","sub-10","15-Jul-2016 18:00:29",2,7,"pain",1,45,10.7395833333333,1.26818560700031,35,2497.456465913,2604.927003823,2606.428772307,2.5,2608.868630916,2,2610.866996011,6,2616.92355427,2618.191739877,4
"433","sub-10","15-Jul-2016 18:00:29",2,8,"pain",3,47,18.263671875,2.35272218999989,35,2497.456465913,2622.212827121,2623.714499318,3,2626.654070937,2,2628.653292998,6,2634.709841024,2637.062563214,3
"434","sub-10","15-Jul-2016 18:00:29",2,9,"pain",2,46,16.7018229166667,3.07016695099992,95,2497.456465913,2640.08244984,2641.584103325,3.5,2645.025638028,2,2647.02355323,5,2652.079007978,2655.149174929,5
"435","sub-10","15-Jul-2016 18:00:29",2,10,"pain",4,48,64.4322916666667,3.95448954499989,5,2497.456465913,2660.171294838,2661.672961211,2,2663.611338308,2,2665.610721565,5,2670.666176656,2674.620666201,3
"436","sub-10","15-Jul-2016 18:00:29",2,11,"pain",1,45,47.5690104166667,1.23475693299997,65,2497.456465913,2677.640636565,2679.14231826,2,2681.083309909,2,2683.080068474,5,2688.135450659,2689.370207592,2
"437","sub-10","15-Jul-2016 18:00:29",2,12,"pain",5,49,75.283203125,2.15251179699999,65,2497.456465913,2691.405777915,2692.907520735,3.5,2696.334318219,2,2698.330119493,5,2703.385598504,2705.538110301,4
"438","sub-10","15-Jul-2016 18:00:29",2,13,"pain",1,45,22.5533854166667,3.15352358900009,5,2497.456465913,2709.559116204,2711.060867643,3.5,2714.500990278,2,2716.50020334,5,2721.555737387,2724.709260976,5
"439","sub-10","15-Jul-2016 18:00:29",2,14,"pain",2,46,15.3333333333333,3.58731753899974,95,2497.456465913,2729.73135152,2731.233119686,2,2733.171545797,2,2735.170669378,5,2740.226346585,2743.813664124,2
"440","sub-10","15-Jul-2016 18:00:29",2,15,"pain",3,47,16.1595052083333,1.90221678699982,5,2497.456465913,2745.832577561,2747.334231559,3,2750.276341377,2,2752.272970092,5,2757.328475313,2759.2306921,4
"441","sub-10","15-Jul-2016 18:00:29",2,16,"pain",3,47,9.44401041666667,2.26930897900002,35,2497.456465913,2763.251704417,2764.753435856,3,2767.6930085,2,2769.692190076,6,2775.748776345,2778.018085324,4
"442","sub-10","15-Jul-2016 18:00:29",2,17,"pain",3,47,13.6822916666667,1.98552775499957,95,2497.456465913,2782.039146521,2783.540761739,2,2785.481431734,2,2787.478508521,6,2793.535064209,2795.520591964,2
"443","sub-10","15-Jul-2016 18:00:29",2,18,"pain",4,48,53.2174479166667,3.38713451100011,65,2497.456465913,2797.539492407,2799.041262578,2.5,2801.483544782,2,2803.47950911,5,2808.534940225,2811.922074736,5
"444","sub-10","15-Jul-2016 18:00:29",2,19,"pain",5,49,69.3033854166667,2.58615204300031,35,2497.456465913,2816.944263853,2818.446004379,2.5,2820.885132012,2,2822.884234613,6,2828.940875119,2831.527027162,2
"445","sub-10","15-Jul-2016 18:00:29",2,20,"pain",4,48,60.4114583333333,3.02007665600013,35,2497.456465913,2833.562693613,2835.064255064,2,2836.99034644,2,2838.985303477,6,2845.041869744,2848.0619464,5
"446","sub-10","15-Jul-2016 18:00:29",2,21,"pain",2,46,8.59765625,2.06898887699981,5,2497.456465913,2853.084209715,2854.585764178,2.5,2857.0244964,2,2859.024105787,5,2864.079644416,2866.148633293,4
"447","sub-10","15-Jul-2016 18:00:29",2,22,"pain",4,48,71.8938802083333,1.06788757300001,65,2497.456465913,2870.169724881,2871.671399976,3.5,2875.111386752,2,2877.110728607,6,2883.167364727,2884.2352523,2
"448","sub-10","15-Jul-2016 18:00:29",2,23,"pain",5,49,77.6822916666667,3.63749379599994,35,2497.456465913,2886.270749589,2887.772415647,2,2889.698602312,2,2891.693369867,5,2896.748925863,2900.386419659,3
"449","sub-10","15-Jul-2016 18:00:29",2,24,"pain",3,47,62.6432291666667,2.25261455000009,95,2497.456465913,2903.406395903,2904.908062025,3,2907.84934263,2,2909.846758982,5,2914.90229475,2917.1549093,4
"450","sub-10","15-Jul-2016 18:00:29",2,25,"pain",2,46,49.470703125,2.40280013500023,95,2497.456465913,2921.175982382,2922.677670461,2,2924.617908511,2,2926.615359034,6,2932.671871191,2935.074671326,2
"451","sub-11","18-Jul-2016 17:36:22",1,1,"vision",2,0.275,16.7311197916667,2.3694875630008,95,8220.082682313,8220.134722951,8221.636378128,3.5,8225.090048535,2,8227.092389427,6,8233.082176204,8235.451663767,2
"452","sub-11","18-Jul-2016 17:36:22",1,2,"vision",4,0.725,73.3424479166667,1.71873102800055,65,8220.082682313,8237.487108958,8238.988844787,3,8241.975517302,2,8243.977698269,6,8249.967468051,8251.686199079,4
"453","sub-11","18-Jul-2016 17:36:22",1,3,"vision",4,0.725,82.22265625,2.71981510199839,35,8220.082682313,8255.707333623,8257.208948903,2,8259.211091561,2,8261.213300493,5,8266.202064241,8268.921879343,4
"454","sub-11","18-Jul-2016 17:36:22",1,4,"vision",5,0.95,98.0755208333333,2.98676051800066,35,8220.082682313,8272.942854157,8274.444599684,2.5,8276.947280267,2,8278.949482965,6,8284.939408048,8287.926168566,3
"455","sub-11","18-Jul-2016 17:36:22",1,5,"vision",3,0.5,15.048828125,4.50500890900003,35,8220.082682313,8290.946059213,8292.447830208,2.5,8294.950588317,2,8296.952705396,6,8302.942621154,8307.447630063,3
"456","sub-11","18-Jul-2016 17:36:22",1,6,"vision",3,0.5,17.2526041666667,1.81881939400046,95,8220.082682313,8310.467710545,8311.969360478,3.5,8315.47315874,2,8317.475437096,5,8322.464134447,8324.282953841,2
"457","sub-11","18-Jul-2016 17:36:22",1,7,"vision",5,0.95,99.3697916666667,2.98679165800058,5,8220.082682313,8326.318526179,8327.820074352,2.5,8330.306149391,2,8332.308372509,5,8337.297158737,8340.283950395,3
"458","sub-11","18-Jul-2016 17:36:22",1,8,"vision",5,0.95,98.865234375,3.3037565880004,35,8220.082682313,8343.303922164,8344.805585826,2.5,8347.308354264,2,8349.3104699,6,8355.300390399,8358.604146987,2
"459","sub-11","18-Jul-2016 17:36:22",1,9,"vision",1,0.05,2.669921875,4.40501895499983,65,8220.082682313,8360.63963288,8362.141383142,3.5,8365.628478965,2,8367.63064113,5,8372.619446703,8377.024465658,4
"460","sub-11","18-Jul-2016 17:36:22",1,10,"vision",2,0.275,13.9720052083333,2.00225721000061,95,8220.082682313,8381.045563307,8382.54713681,3.5,8386.050981614,2,8388.053206543,6,8394.043197804,8396.045455014,5
"461","sub-11","18-Jul-2016 17:36:22",1,11,"vision",2,0.275,16.8658854166667,4.80530560699845,35,8220.082682313,8401.067642871,8402.569317258,2,8404.571528955,2,8406.573757236,5,8411.562483641,8416.367789248,3
"462","sub-11","18-Jul-2016 17:36:22",1,12,"vision",1,0.05,2.66796875,2.71979084499981,5,8220.082682313,8419.387839898,8420.889433454,2.5,8423.392224153,2,8425.394493795,5,8430.383207639,8433.102998484,3
"463","sub-11","18-Jul-2016 17:36:22",1,13,"vision",3,0.5,38.5774739583333,2.23587131900058,35,8220.082682313,8436.123019697,8437.624667868,3.5,8441.128454478,2,8443.13065741,6,8449.120531843,8451.356403162,2
"464","sub-11","18-Jul-2016 17:36:22",1,14,"vision",4,0.725,58.86328125,4.38831826899877,95,8220.082682313,8453.391962755,8454.893625385,2.5,8457.379675954,2,8459.381922482,5,8464.370686873,8468.759005142,5
"465","sub-11","18-Jul-2016 17:36:22",1,15,"vision",1,0.05,4.19596354166667,2.68646125799933,5,8220.082682313,8473.781183976,8475.282866433,2,8477.285002375,2,8479.287278712,5,8484.275991312,8486.96245257,2
"466","sub-11","18-Jul-2016 17:36:22",1,16,"vision",5,0.95,100,1.31825269399997,65,8220.082682313,8488.998119309,8490.499655479,3,8493.486257436,2,8495.488498616,6,8501.478316577,8502.796569271,3
"467","sub-11","18-Jul-2016 17:36:22",1,17,"vision",1,0.05,7.130859375,2.90331622300073,65,8220.082682313,8505.81644671,8507.318131557,3.5,8510.822009513,2,8512.824195661,5,8517.813010437,8520.71632666,4
"468","sub-11","18-Jul-2016 17:36:22",1,18,"vision",2,0.275,18.0345052083333,2.3360529849997,5,8220.082682313,8524.737455881,8526.23910073,2,8528.241235816,2,8530.243502455,5,8535.232208465,8537.56826145,3
"469","sub-11","18-Jul-2016 17:36:22",1,19,"vision",3,0.5,46.357421875,4.35493589200087,5,8220.082682313,8540.588258502,8542.089919062,2,8544.092042516,2,8546.094344026,5,8551.083031741,8555.437967633,3
"470","sub-11","18-Jul-2016 17:36:22",1,20,"vision",4,0.725,69.4856770833333,3.33714671100097,35,8220.082682313,8558.457950022,8559.959621697,2,8561.961752788,2,8563.964040807,6,8569.953857256,8573.291003967,4
"471","sub-11","18-Jul-2016 17:36:22",1,21,"vision",4,0.725,59.7858072916667,3.37049018899961,65,8220.082682313,8577.311989177,8578.813756107,3,8581.817075412,2,8583.819191429,5,8588.80801368,8592.178503869,4
"472","sub-11","18-Jul-2016 17:36:22",1,22,"vision",3,0.5,47.103515625,2.51950480500091,5,8220.082682313,8596.199574843,8597.701263937,3.5,8601.205052481,2,8603.20733836,6,8609.19714375,8611.716648555,5
"473","sub-11","18-Jul-2016 17:36:22",1,23,"vision",5,0.95,100,2.45275225499972,35,8220.082682313,8616.738920584,8618.240584454,2.5,8620.743288228,2,8622.745557964,6,8628.735376918,8631.188129173,2
"474","sub-11","18-Jul-2016 17:36:22",1,24,"vision",2,0.275,17.2955729166667,2.70310648799932,95,8220.082682313,8633.223706422,8634.725447608,2.5,8637.211443561,2,8639.213692378,5,8644.202445113,8646.905551601,4
"475","sub-11","18-Jul-2016 17:36:22",1,25,"vision",1,0.05,1.74544270833333,2.38608489100079,35,8220.082682313,8650.926616436,8652.42830976,2.5,8654.931084312,2,8656.933266732,5,8661.922012255,8664.308097146,5
"476","sub-11","18-Jul-2016 17:36:22",2,1,"pain",2,46,48.9420572916667,9.69416516700039,95,8701.6305619,8701.632473458,8703.13424306,2,8705.087272567,2,8707.088604117,6,8713.128477608,8722.822642775,2
"477","sub-11","18-Jul-2016 17:36:22",2,2,"pain",4,48,52.0970052083333,6.42391784900065,35,8701.6305619,8724.85814856,8726.359839734,2.5,8728.786194684,2,8730.781422031,5,8735.836844427,8742.260762276,4
"478","sub-11","18-Jul-2016 17:36:22",2,3,"pain",1,45,13.052734375,5.27253643599943,5,8701.6305619,8746.281724947,8747.783431179,2,8749.724437188,2,8751.721180913,6,8757.777737105,8763.050273541,5
"479","sub-11","18-Jul-2016 17:36:22",2,4,"pain",1,45,14.5970052083333,2.95339444400088,65,8701.6305619,8768.072438826,8769.57418378,3,8772.513034473,2,8774.512994529,6,8780.569545478,8783.522939922,3
"480","sub-11","18-Jul-2016 17:36:22",2,5,"pain",2,46,20.9166666666667,3.38720262000061,95,8701.6305619,8786.542905713,8788.044618252,3,8790.985952188,2,8792.983368787,5,8798.038814349,8801.426016969,5
"481","sub-11","18-Jul-2016 17:36:22",2,6,"pain",5,49,66.556640625,1.33491583000068,65,8701.6305619,8806.448201173,8807.949882615,3.5,8811.389283239,2,8813.38922208,6,8819.445788496,8820.780704326,4
"482","sub-11","18-Jul-2016 17:36:22",2,7,"pain",1,45,4.6015625,2.5695550770015,5,8701.6305619,8824.801698487,8826.30338478,3,8829.242872416,2,8831.242240603,6,8837.298880514,8839.868435591,5
"483","sub-11","18-Jul-2016 17:36:22",2,8,"pain",5,49,58.873046875,5.23916740799905,65,8701.6305619,8844.890525701,8846.392367562,3,8849.331363302,2,8851.331043358,5,8856.386609973,8861.625777381,2
"484","sub-11","18-Jul-2016 17:36:22",2,9,"pain",3,47,34.2565104166667,1.75211369899989,5,8701.6305619,8863.661345123,8865.163009231,3.5,8868.58934063,2,8870.585541495,5,8875.64109084,8877.393204539,2
